Timestamp,Accel X,Accel Y,Accel Z,Gyro X,Gyro Y,Gyro Z,Start Flag
1734787439.1730309,-0.900634765625,-0.3466796875,0.3262939453125,4.08935546875,-4.94384765625,-3.356933355331421,0
1734787439.6774518,-0.8597412109375,-0.3516845703125,0.31884765625,2.38037109375,-1.5258787870407104,-0.0610351525247097,0
1734787439.6774518,-0.8935546875,-0.34130859375,0.3118896484375,0.4882812201976776,-11.291502952575684,0.8544921278953552,0
1734787439.678689,-0.881103515625,-0.2744140625,0.29345703125,6.347655773162842,-11.779784202575684,-6.042479991912842,0
1734787439.678689,-1.1279296875,-0.214111328125,0.453125,5.126952648162842,-34.48486328125,-24.230955123901367,0
1734787439.7716947,-0.8616943359375,-0.4188232421875,0.21044921875,-22.216794967651367,16.11328125,-7.019042491912842,0
1734787439.8918092,-0.7677001953125,-0.4229736328125,0.2418212890625,3.845214605331421,13.671874046325684,7.629394054412842,0
1734787440.0113337,-0.88671875,-0.298583984375,0.343017578125,19.775390625,4.638671875,11.901854515075684,0
1734787440.1314795,-0.9404296875,-0.27197265625,0.329833984375,0.6713866591453552,4.638671875,-1.03759765625,0
1734787440.252052,-0.8883056640625,-0.3447265625,0.3084716796875,-1.7089842557907104,2.3193359375,-1.6479490995407104,0
1734787440.3716676,-0.8858642578125,-0.32958984375,0.2894287109375,-0.2441406100988388,2.0751953125,1.5869139432907104,0
1734787440.4922378,-0.8895263671875,-0.3154296875,0.3109130859375,0.30517578125,6.652831554412842,-1.15966796875,0
1734787440.6116116,-0.8724365234375,-0.359619140625,0.3502197265625,2.0751953125,5.737304210662842,1.5258787870407104,0
1734787440.7313075,-0.8309326171875,-0.3397216796875,0.328857421875,-7.629394054412842,-4.5166015625,-0.0610351525247097,0
1734787440.8511786,-0.697021484375,-0.24365234375,0.262939453125,-6.896972179412842,-15.991209983825684,-9.6435546875,0
1734787440.9715085,-0.5252685546875,-0.1270751953125,0.1510009765625,-0.54931640625,-21.179197311401367,-10.070799827575684,0
1734787441.0921047,-0.8380126953125,-0.1905517578125,0.1739501953125,15.197752952575684,-38.4521484375,-22.766111373901367,0
1734787441.2118733,-0.9423828125,-0.2489013671875,0.1600341796875,5.493163585662842,-25.634763717651367,-15.136717796325684,0
1734787441.3319595,-1.0758056640625,-0.306884765625,0.14111328125,-6.347655773162842,11.657713890075684,1.4038084745407104,0
1734787441.4516547,-1.200927734375,-0.27197265625,0.1678466796875,-7.690429210662842,15.441893577575684,-8.6669921875,0
1734787441.5724132,-1.317626953125,-0.285888671875,0.226318359375,-2.807616949081421,22.705076217651367,0.3662109076976776,0
1734787441.692458,-1.4058837890625,-0.2921142578125,0.330322265625,-4.2724609375,7.934569835662842,2.868652105331421,0
1734787441.812285,-1.2000732421875,-0.2769775390625,0.2747802734375,-3.723144292831421,4.7607421875,6.164550304412842,0
1734787441.9318614,-1.0606689453125,-0.262451171875,0.2301025390625,-0.9765624403953552,7.690429210662842,6.042479991912842,0
1734787442.051701,-0.801025390625,-0.2335205078125,0.2003173828125,-4.5166015625,4.08935546875,2.990722417831421,0
1734787442.172369,-0.622314453125,-0.1771240234375,0.1429443359375,-2.624511480331421,14.099120140075684,5.981444835662842,0
1734787442.2923872,-0.5430908203125,-0.1734619140625,0.136474609375,-7.202147960662842,27.648923873901367,11.169432640075684,0
1734787442.4116652,-0.755126953125,-0.270751953125,0.25,4.2724609375,12.512206077575684,0.7934569716453552,0
1734787442.5328908,-0.96826171875,-0.1826171875,0.2672119140625,2.38037109375,29.541013717651367,2.807616949081421,0
1734787442.6516726,-0.9915771484375,-0.26953125,0.3135986328125,4.21142578125,-12.634276390075684,1.9531248807907104,0
1734787443.1717005,-0.8369140625,-0.267822265625,0.323974609375,-3.417968511581421,3.295898199081421,6.042479991912842,1
1734787443.1722043,-0.9178466796875,-0.2503662109375,0.30712890625,-0.4272460639476776,3.173827886581421,0.7934569716453552,1
1734787443.1732316,-0.8973388671875,-0.2940673828125,0.3201904296875,0.0610351525247097,1.5258787870407104,0.2441406100988388,1
1734787443.1732316,-0.8980712890625,-0.2802734375,0.3382568359375,-0.0610351525247097,2.685546636581421,2.3193359375,1
1734787443.2517276,-0.892822265625,-0.271240234375,0.3404541015625,0.3662109076976776,4.5166015625,1.2817381620407104,1
1734787443.371691,-0.9036865234375,-0.298583984375,0.3348388671875,-3.601073980331421,7.446288585662842,-2.01416015625,1
1734787443.491888,-0.880859375,-0.2928466796875,0.35009765625,0.1831054538488388,-3.112792730331421,2.13623046875,1
1734787443.6123075,-0.8782958984375,-0.283935546875,0.35107421875,-0.2441406100988388,-0.2441406100988388,3.723144292831421,1
1734787443.7322106,-0.8839111328125,-0.2840576171875,0.3507080078125,-1.220703125,0.1220703050494194,1.6479490995407104,1
1734787443.851727,-0.8746337890625,-0.287841796875,0.356201171875,-4.0283203125,2.01416015625,2.807616949081421,1
1734787443.9714096,-0.8642578125,-0.2833251953125,0.357421875,-2.50244140625,1.220703125,1.7089842557907104,1
1734787444.0916166,-0.813232421875,-0.2742919921875,0.3154296875,-1.9531248807907104,-9.765625,-4.150390625,1
1734787444.211993,-0.70849609375,-0.2242431640625,0.247314453125,-5.859374523162842,-21.179197311401367,-12.084959983825684,1
1734787444.3316023,-0.6270751953125,-0.1632080078125,0.145263671875,-5.859374523162842,-24.291990280151367,-14.038084983825684,1
1734787444.4518783,-0.820068359375,-0.186767578125,0.1884765625,1.6479490995407104,-25.207517623901367,-15.502928733825684,1
1734787444.571878,-0.9207763671875,-0.145751953125,0.20166015625,7.995604991912842,-28.991697311401367,-17.39501953125,1
1734787444.6921194,-1.1171875,-0.232421875,0.1812744140625,6.042479991912842,-6.469726085662842,-1.5258787870407104,1
1734787444.8119838,-1.277099609375,-0.2281494140625,0.2630615234375,-2.746581792831421,1.4648436307907104,-0.7324218153953552,1
1734787444.932352,-1.4769287109375,-0.29638671875,0.233642578125,-12.268065452575684,12.573241233825684,11.596678733825684,1
1734787445.0519173,-1.328125,-0.290771484375,0.306884765625,-0.0610351525247097,10.864256858825684,1.9531248807907104,1
1734787445.1722317,-1.1666259765625,-0.2647705078125,0.24560546875,-1.6479490995407104,6.835937023162842,2.685546636581421,1
1734787445.2918746,-0.920654296875,-0.209228515625,0.204833984375,0.4882812201976776,11.108397483825684,4.69970703125,1
1734787445.4125721,-0.6820068359375,-0.1702880859375,0.1761474609375,4.8828125,5.371093273162842,7.568358898162842,1
1734787445.531619,-0.5556640625,-0.1641845703125,0.147705078125,-0.2441406100988388,2.624511480331421,22.888181686401367,1
1734787445.651653,-0.7822265625,-0.239990234375,0.202880859375,-6.896972179412842,18.798828125,8.11767578125,1
1734787445.77203,-0.852294921875,-0.258544921875,0.262451171875,-1.7089842557907104,15.258788108825684,6.774901866912842,1
1734787445.8916693,-0.925048828125,-0.21923828125,0.2694091796875,6.042479991912842,8.6669921875,3.540038824081421,1
1734787446.0115583,-0.89404296875,-0.333251953125,0.3321533203125,8.97216796875,-8.23974609375,-2.38037109375,1
1734787446.1317499,-0.8919677734375,-0.3184814453125,0.305419921875,4.39453125,4.8828125,0.2441406100988388,1
1734787446.6770651,-0.9122314453125,-0.2957763671875,0.2630615234375,1.0986328125,-1.5869139432907104,-1.3427733182907104,2
1734787446.6779811,-0.8968505859375,-0.3201904296875,0.279296875,1.8310545682907104,-3.112792730331421,-1.4038084745407104,2
1734787446.6789703,-0.903564453125,-0.3192138671875,0.2691650390625,0.8544921278953552,-2.197265625,-0.3662109076976776,2
1734787446.6800044,-0.912109375,-0.2989501953125,0.26611328125,1.2817381620407104,3.051757574081421,-1.220703125,2
1734787446.7312481,-0.907470703125,-0.3123779296875,0.2666015625,-0.2441406100988388,-0.3662109076976776,-1.03759765625,2
1734787446.8519049,-0.8876953125,-0.3189697265625,0.2603759765625,-0.54931640625,-5.432128429412842,-1.5869139432907104,2
1734787446.971942,-0.9029541015625,-0.327392578125,0.26953125,-2.807616949081421,0.6103515625,4.7607421875,2
1734787447.0920033,-0.9271240234375,-0.303466796875,0.25146484375,-1.7700194120407104,-3.173827886581421,2.929687261581421,2
1734787447.2117283,-0.91259765625,-0.294921875,0.271240234375,3.540038824081421,9.82666015625,1.4038084745407104,2
1734787447.331409,-0.9029541015625,-0.3175048828125,0.2728271484375,0.0,6.286620616912842,-1.0986328125,2
1734787447.45225,-0.903564453125,-0.3165283203125,0.275146484375,-0.6713866591453552,3.784179449081421,1.5258787870407104,2
1734787447.5714965,-0.8336181640625,-0.3123779296875,0.269775390625,-0.9155272841453552,-4.39453125,-0.9155272841453552,2
1734787447.6913545,-0.758544921875,-0.239501953125,0.2147216796875,0.6713866591453552,-16.78466796875,-12.145995140075684,2
1734787447.8113654,-0.62841796875,-0.208740234375,0.1580810546875,-7.324218273162842,-12.695311546325684,-12.756346702575684,2
1734787447.9316578,-0.78515625,-0.1953125,0.1712646484375,-1.8920897245407104,-30.761716842651367,-23.559568405151367,2
1734787448.0518627,-0.933349609375,-0.169921875,0.1611328125,-3.051757574081421,-5.676269054412842,-15.380858421325684,2
1734787448.1719182,-1.0465087890625,-0.2213134765625,0.117431640625,-0.8544921278953552,-13.549803733825684,-15.075682640075684,2
1734787448.2923253,-1.205078125,-0.2113037109375,0.1865234375,0.30517578125,-1.4648436307907104,9.27734375,2
1734787448.4120972,-1.2650146484375,-0.2286376953125,0.19482421875,2.197265625,-10.559081077575684,-3.234863042831421,2
1734787448.5323853,-1.5975341796875,-0.2764892578125,0.1806640625,1.15966796875,0.7934569716453552,8.4228515625,2
1734787448.6520858,-1.258056640625,-0.2855224609375,0.188720703125,0.4882812201976776,8.056640625,-0.6103515625,2
1734787448.7717137,-1.053955078125,-0.2506103515625,0.153076171875,-8.11767578125,15.502928733825684,4.08935546875,2
1734787448.8916183,-0.7554931640625,-0.154541015625,0.1517333984375,2.25830078125,4.150390625,-3.051757574081421,2
1734787449.0121422,-0.4659423828125,-0.0616455078125,0.139404296875,20.01953125,-2.3193359375,-21.728513717651367,2
1734787449.131651,-0.591552734375,-0.135986328125,0.137451171875,-1.03759765625,59.448238372802734,28.869626998901367,2
1734787449.2518792,-1.1563720703125,-0.21875,0.1519775390625,-6.774901866912842,-23.803709030151367,3.540038824081421,2
1734787449.371993,-0.9443359375,-0.183837890625,0.2547607421875,-1.7700194120407104,-3.112792730331421,-0.6103515625,2
1734787449.4920104,-0.9063720703125,-0.2265625,0.278564453125,1.8920897245407104,0.4272460639476776,1.6479490995407104,2
1734787449.6121688,-0.916015625,-0.2205810546875,0.268798828125,0.2441406100988388,0.4272460639476776,4.2724609375,2
1734787450.1856103,-0.9178466796875,-0.2144775390625,0.2703857421875,-1.5258787870407104,-1.3427733182907104,0.30517578125,3
1734787450.1865945,-0.9183349609375,-0.22705078125,0.2742919921875,-2.25830078125,-0.30517578125,-0.30517578125,3
1734787450.1880772,-0.927001953125,-0.2471923828125,0.2618408203125,-1.8920897245407104,-2.13623046875,-1.4648436307907104,3
1734787450.1885781,-0.92529296875,-0.2119140625,0.25927734375,-1.220703125,1.2817381620407104,2.197265625,3
1734787450.189829,-0.904296875,-0.2196044921875,0.271240234375,-0.54931640625,-0.54931640625,0.8544921278953552,3
1734787450.271683,-0.9029541015625,-0.2281494140625,0.2711181640625,-1.03759765625,2.50244140625,2.807616949081421,3
1734787450.3917696,-0.935546875,-0.2236328125,0.2606201171875,0.7324218153953552,-1.0986328125,1.2817381620407104,3
1734787450.5119927,-0.924560546875,-0.235107421875,0.2740478515625,-1.3427733182907104,0.4272460639476776,-0.2441406100988388,3
1734787450.6319003,-0.9287109375,-0.233642578125,0.2730712890625,-4.08935546875,2.50244140625,1.0986328125,3
1734787450.7523007,-0.9248046875,-0.213134765625,0.2713623046875,-3.540038824081421,0.4882812201976776,1.5258787870407104,3
1734787450.872056,-0.94091796875,-0.2373046875,0.2813720703125,-3.906249761581421,0.0610351525247097,2.0751953125,3
1734787450.9913492,-0.9012451171875,-0.22216796875,0.26220703125,-0.2441406100988388,0.7934569716453552,1.5258787870407104,3
1734787451.112008,-0.8870849609375,-0.212646484375,0.244140625,0.3662109076976776,-9.765625,-6.408690929412842,3
1734787451.2310944,-0.76171875,-0.176025390625,0.2076416015625,-1.4038084745407104,-10.620116233825684,-9.21630859375,3
1734787451.3513534,-0.7210693359375,-0.1226806640625,0.1234130859375,-2.929687261581421,-15.930174827575684,-12.084959983825684,3
1734787451.4716241,-0.74169921875,-0.1031494140625,0.1136474609375,0.4272460639476776,-27.587888717651367,-12.817381858825684,3
1734787451.650591,-0.9434814453125,-0.114013671875,0.2093505859375,-7.446288585662842,-0.3662109076976776,-8.85009765625,3
1734787451.7118616,-1.10693359375,-0.1298828125,0.12548828125,-3.784179449081421,5.615233898162842,2.0751953125,3
1734787451.8323846,-1.09423828125,-0.1590576171875,0.2081298828125,-6.591796398162842,11.352538108825684,5.065917491912842,3
1734787451.9520817,-1.2008056640625,-0.219970703125,0.227783203125,-3.295898199081421,13.305663108825684,12.634276390075684,3
1734787452.0719562,-1.5362548828125,-0.2362060546875,0.2919921875,4.94384765625,-8.85009765625,3.845214605331421,3
1734787452.1921492,-1.3123779296875,-0.2698974609375,0.3154296875,4.82177734375,7.202147960662842,-2.685546636581421,3
1734787452.3125463,-1.0972900390625,-0.2255859375,0.2689208984375,2.3193359375,-5.371093273162842,-7.324218273162842,3
1734787452.432443,-0.8873291015625,-0.2005615234375,0.2379150390625,-3.784179449081421,2.38037109375,-3.906249761581421,3
1734787452.5521028,-0.6983642578125,-0.1251220703125,0.179931640625,3.662109136581421,-6.896972179412842,-6.225585460662842,3
1734787452.6716926,-0.55078125,-0.097900390625,0.122314453125,-0.1831054538488388,24.963376998901367,5.920409679412842,3
1734787452.7918386,-0.60400390625,-0.14013671875,0.1746826171875,2.44140625,23.986814498901367,18.85986328125,3
1734787452.912295,-1.1158447265625,-0.1453857421875,0.2330322265625,7.263183116912842,-11.657713890075684,1.8920897245407104,3
1734787453.0317516,-0.8621826171875,-0.2406005859375,0.310791015625,6.286620616912842,-5.310058116912842,3.479003667831421,3
1734787453.1522698,-0.9530029296875,-0.225830078125,0.28369140625,-0.30517578125,4.5166015625,2.807616949081421,3
1734787453.6961868,-0.915283203125,-0.2359619140625,0.2923583984375,-2.0751953125,-0.54931640625,1.15966796875,4
1734787453.6971505,-0.897216796875,-0.2452392578125,0.291748046875,-3.906249761581421,0.4272460639476776,4.94384765625,4
1734787453.6973746,-0.9139404296875,-0.227783203125,0.2811279296875,-1.15966796875,-1.0986328125,1.8310545682907104,4
1734787453.6984851,-0.9429931640625,-0.2357177734375,0.2713623046875,-0.4272460639476776,-2.13623046875,-1.9531248807907104,4
1734787453.7515223,-0.908203125,-0.2313232421875,0.2857666015625,2.25830078125,0.9765624403953552,1.220703125,4
1734787453.871167,-0.919189453125,-0.23046875,0.292236328125,1.6479490995407104,-0.7324218153953552,0.1831054538488388,4
1734787453.9914424,-0.93603515625,-0.234375,0.2791748046875,0.7324218153953552,1.7700194120407104,-0.54931640625,4
1734787454.1111443,-0.918212890625,-0.2366943359375,0.2772216796875,-0.0610351525247097,0.2441406100988388,1.03759765625,4
1734787454.232134,-0.9168701171875,-0.2415771484375,0.2857666015625,-1.2817381620407104,-0.54931640625,0.9155272841453552,4
1734787454.35206,-0.9151611328125,-0.2369384765625,0.28271484375,-1.03759765625,-2.01416015625,-0.0610351525247097,4
1734787454.471974,-0.924560546875,-0.25,0.267578125,-1.220703125,-0.9155272841453552,1.0986328125,4
1734787454.5911138,-0.85791015625,-0.2225341796875,0.2503662109375,-1.4038084745407104,-12.145995140075684,-5.615233898162842,4
1734787454.7116525,-0.6839599609375,-0.1463623046875,0.1702880859375,-3.295898199081421,-16.05224609375,-28.869626998901367,4
1734787454.8905005,-0.786865234375,-0.146484375,0.0675048828125,-13.183592796325684,-14.282225608825684,-21.484373092651367,4
1734787454.951537,-0.7911376953125,-0.0546875,0.154541015625,7.873534679412842,-7.019042491912842,-1.8310545682907104,4
1734787455.0715477,-0.9986572265625,-0.056884765625,0.134033203125,-2.0751953125,-10.437010765075684,-10.314940452575684,4
1734787455.191995,-1.05419921875,-0.12255859375,0.1658935546875,-5.187987804412842,-2.13623046875,1.5869139432907104,4
1734787455.3116539,-1.2608642578125,-0.1229248046875,0.1715087890625,5.310058116912842,12.817381858825684,7.202147960662842,4
1734787455.4321756,-1.4603271484375,-0.17431640625,0.1854248046875,0.6103515625,-5.371093273162842,-1.8920897245407104,4
1734787455.6115427,-1.474853515625,-0.1954345703125,0.232177734375,-5.310058116912842,7.751464366912842,-2.197265625,4
1734787455.6720855,-1.2149658203125,-0.1915283203125,0.2471923828125,-6.103515148162842,-2.685546636581421,-6.286620616912842,4
1734787455.7920556,-0.9638671875,-0.1248779296875,0.1771240234375,-2.0751953125,5.981444835662842,9.70458984375,4
1734787455.9122343,-0.9342041015625,-0.073974609375,0.124267578125,0.30517578125,0.1220703050494194,8.23974609375,4
1734787456.0314777,-0.58935546875,-0.074462890625,0.098388671875,-0.4272460639476776,24.780271530151367,12.390135765075684,4
1734787456.151523,-0.5577392578125,-0.126953125,0.07958984375,-0.54931640625,35.33935546875,16.845703125,4
1734787456.2717605,-1.0255126953125,-0.1881103515625,0.1959228515625,17.51708984375,-25.451658248901367,1.7700194120407104,4
1734787456.391893,-0.954345703125,-0.14306640625,0.2677001953125,3.173827886581421,4.82177734375,-0.3662109076976776,4
1734787456.5124857,-0.9222412109375,-0.231689453125,0.26171875,1.9531248807907104,4.150390625,0.3662109076976776,4
1734787456.6320226,-0.8824462890625,-0.2225341796875,0.265625,1.3427733182907104,4.8828125,2.50244140625,4
1734787457.2185612,-0.943115234375,-0.2142333984375,0.2608642578125,0.30517578125,0.0610351525247097,-1.0986328125,5
1734787457.219562,-0.96240234375,-0.234619140625,0.2586669921875,-0.4272460639476776,-1.03759765625,0.4272460639476776,5
1734787457.219562,-0.9169921875,-0.2147216796875,0.2655029296875,-3.356933355331421,-3.173827886581421,-0.6103515625,5
1734787457.220562,-0.92626953125,-0.21533203125,0.2547607421875,-3.662109136581421,-0.9765624403953552,-1.7700194120407104,5
1734787457.2315614,-0.941650390625,-0.207763671875,0.252197265625,-1.8920897245407104,-4.08935546875,0.0,5
1734787457.3509433,-0.9334716796875,-0.22314453125,0.2562255859375,-0.0610351525247097,-2.01416015625,1.5869139432907104,5
1734787457.4715505,-0.9378662109375,-0.216064453125,0.2459716796875,-0.2441406100988388,0.0,1.7089842557907104,5
1734787457.5920932,-0.9051513671875,-0.2239990234375,0.2469482421875,-2.13623046875,-4.150390625,1.5258787870407104,5
1734787457.7118251,-0.959716796875,-0.2117919921875,0.2366943359375,-2.807616949081421,-4.2724609375,1.2817381620407104,5
1734787457.8314085,-0.9449462890625,-0.2337646484375,0.2366943359375,-3.234863042831421,-5.981444835662842,0.3662109076976776,5
1734787457.9521368,-0.93505859375,-0.2076416015625,0.2227783203125,-2.3193359375,-1.5258787870407104,1.0986328125,5
1734787458.0718117,-0.8421630859375,-0.201416015625,0.196533203125,3.295898199081421,-11.108397483825684,-7.629394054412842,5
1734787458.191129,-0.7249755859375,-0.1405029296875,0.1112060546875,1.5258787870407104,-16.7236328125,-18.61572265625,5
1734787458.3113973,-0.763671875,-0.0732421875,0.077392578125,-1.3427733182907104,-18.37158203125,-16.4794921875,5
1734787458.4310968,-0.7799072265625,-0.1024169921875,0.0885009765625,10.620116233825684,-9.8876953125,-6.958007335662842,5
1734787458.5511312,-1.021240234375,-0.101318359375,0.1776123046875,-10.925292015075684,28.198240280151367,-5.065917491912842,5
1734787458.671586,-1.06689453125,-0.1572265625,0.1932373046875,-13.549803733825684,5.554198741912842,3.540038824081421,5
1734787458.7918506,-1.2755126953125,-0.1435546875,0.19580078125,-11.413573265075684,1.4648436307907104,13.305663108825684,5
1734787458.9118235,-1.3818359375,-0.1651611328125,0.2945556640625,-3.967284917831421,9.6435546875,3.784179449081421,5
1734787459.032028,-1.487060546875,-0.2193603515625,0.2958984375,3.356933355331421,-2.685546636581421,1.4648436307907104,5
1734787459.1519074,-1.2205810546875,-0.2193603515625,0.261962890625,5.187987804412842,4.33349609375,0.6103515625,5
1734787459.2714827,-1.074951171875,-0.162353515625,0.2010498046875,-0.54931640625,7.812499523162842,2.807616949081421,5
1734787459.392433,-0.79736328125,-0.17041015625,0.1597900390625,6.958007335662842,2.0751953125,1.15966796875,5
1734787459.5122387,-0.6109619140625,-0.046875,0.1239013671875,5.676269054412842,36.07177734375,-1.0986328125,5
1734787459.6320384,-0.4703369140625,-0.083984375,0.160400390625,-8.6669921875,48.767086029052734,23.864744186401367,5
1734787459.7520838,-0.989501953125,-0.2247314453125,0.3973388671875,8.48388671875,-54.260250091552734,-21.484373092651367,5
1734787459.8714955,-0.696533203125,-0.2237548828125,0.3590087890625,-14.831542015075684,3.906249761581421,2.624511480331421,5
1734787459.9924731,-1.02880859375,-0.1455078125,0.2509765625,0.0,-5.798339366912842,3.967284917831421,5
1734787460.1123066,-0.893310546875,-0.1844482421875,0.3094482421875,4.7607421875,-6.225585460662842,-3.723144292831421,5
1734787460.2320747,-0.9361572265625,-0.1773681640625,0.298828125,2.0751953125,-1.0986328125,-4.33349609375,5
1734787460.7354605,-0.928466796875,-0.190673828125,0.27783203125,1.7700194120407104,-0.4882812201976776,-4.638671875,6
1734787460.7364068,-0.9036865234375,-0.2156982421875,0.2911376953125,-5.493163585662842,-3.417968511581421,-0.3662109076976776,6
1734787460.736943,-0.920654296875,-0.183837890625,0.27783203125,-6.225585460662842,-3.295898199081421,5.187987804412842,6
1734787460.7374427,-0.951416015625,-0.156982421875,0.2677001953125,-3.540038824081421,0.30517578125,5.0048828125,6
1734787460.8314345,-0.947021484375,-0.1927490234375,0.26123046875,-7.812499523162842,-2.746581792831421,3.662109136581421,6
1734787460.9515433,-0.9659423828125,-0.1795654296875,0.219970703125,2.197265625,-2.563476324081421,3.051757574081421,6
1734787461.0715587,-0.94775390625,-0.1978759765625,0.27392578125,7.202147960662842,-0.7934569716453552,-4.8828125,6
1734787461.1917598,-0.897216796875,-0.208251953125,0.274658203125,8.9111328125,3.662109136581421,-2.624511480331421,6
1734787461.3121457,-0.9239501953125,-0.22412109375,0.2691650390625,1.15966796875,-5.859374523162842,-1.2817381620407104,6
1734787461.4313154,-0.9437255859375,-0.20458984375,0.2618408203125,-0.3662109076976776,-2.197265625,0.54931640625,6
1734787461.5520825,-0.9200439453125,-0.2125244140625,0.25,-3.479003667831421,-2.0751953125,2.685546636581421,6
1734787461.6710768,-0.872314453125,-0.1590576171875,0.2152099609375,-0.2441406100988388,-12.390135765075684,-8.7890625,6
1734787461.7910051,-0.5408935546875,-0.07861328125,0.142822265625,5.371093273162842,-20.751951217651367,-17.02880859375,6
1734787461.911232,-0.785400390625,-0.0914306640625,0.041015625,5.554198741912842,-34.36279296875,-19.95849609375,6
1734787462.031382,-0.8861083984375,-0.01318359375,0.0911865234375,6.103515148162842,-45.837398529052734,-29.113767623901367,6
1734787462.1512167,-0.99560546875,-0.105224609375,0.10400390625,-3.967284917831421,5.554198741912842,-6.286620616912842,6
1734787462.2711573,-1.1390380859375,-0.0767822265625,0.10009765625,-5.798339366912842,4.0283203125,5.615233898162842,6
1734787462.3923433,-1.2252197265625,-0.1156005859375,0.13037109375,-5.981444835662842,4.150390625,9.521484375,6
1734787462.5711775,-1.6297607421875,-0.10400390625,0.1588134765625,0.54931640625,-4.69970703125,2.868652105331421,6
1734787462.631457,-1.288818359375,-0.135986328125,0.199462890625,7.568358898162842,-6.591796398162842,-9.033203125,6
1734787462.751891,-1.2266845703125,-0.0546875,0.1011962890625,-3.601073980331421,-5.065917491912842,-0.4272460639476776,6
1734787462.8720376,-1.0196533203125,-0.0875244140625,0.089111328125,6.896972179412842,4.39453125,6.042479991912842,6
1734787462.9919844,-0.715576171875,-0.064697265625,0.0919189453125,5.065917491912842,7.080077648162842,7.202147960662842,6
1734787463.1121407,-0.5003662109375,-0.051513671875,0.047607421875,-11.230467796325684,51.574703216552734,21.057126998901367,6
1734787463.2318363,-0.8271484375,-0.0753173828125,0.1846923828125,-0.9765624403953552,9.6435546875,7.019042491912842,6
1734787463.3515742,-0.837646484375,-0.1143798828125,0.2198486328125,3.784179449081421,19.95849609375,9.27734375,6
1734787463.4717844,-1.0052490234375,-0.183349609375,0.2103271484375,10.253905296325684,-5.187987804412842,1.3427733182907104,6
1734787463.5914607,-0.9185791015625,-0.1849365234375,0.245849609375,4.08935546875,-5.920409679412842,-0.0610351525247097,6
1734787463.7123725,-0.9698486328125,-0.1864013671875,0.236328125,0.6713866591453552,2.13623046875,2.197265625,6
1734787464.2442875,-0.921875,-0.1966552734375,0.2421875,1.6479490995407104,5.798339366912842,0.9765624403953552,7
1734787464.2452283,-0.9332275390625,-0.203125,0.2431640625,-3.295898199081421,-0.30517578125,4.33349609375,7
1734787464.2462468,-0.9473876953125,-0.192138671875,0.2432861328125,-2.0751953125,5.981444835662842,4.69970703125,7
1734787464.2471883,-0.9144287109375,-0.1949462890625,0.2525634765625,-1.220703125,-1.4038084745407104,2.25830078125,7
1734787464.3111575,-0.9248046875,-0.2130126953125,0.2476806640625,-1.220703125,2.3193359375,0.9155272841453552,7
1734787464.4316406,-0.9205322265625,-0.1881103515625,0.2318115234375,0.7934569716453552,4.8828125,0.0,7
1734787464.5518377,-0.95166015625,-0.1951904296875,0.2496337890625,2.0751953125,-5.676269054412842,-2.13623046875,7
1734787464.6115458,-0.9168701171875,-0.2230224609375,0.2684326171875,2.990722417831421,2.929687261581421,1.3427733182907104,7
1734787464.7315788,-0.94287109375,-0.20556640625,0.2503662109375,1.15966796875,2.197265625,2.685546636581421,7
1734787464.8519416,-0.938720703125,-0.2215576171875,0.248779296875,-2.197265625,0.6713866591453552,1.9531248807907104,7
1734787464.972157,-0.9285888671875,-0.208251953125,0.2464599609375,-1.5258787870407104,1.8920897245407104,2.38037109375,7
1734787465.0916944,-0.8973388671875,-0.2105712890625,0.2347412109375,0.4272460639476776,-8.6669921875,-0.9765624403953552,7
1734787465.2705834,-0.83056640625,-0.158935546875,0.168701171875,-0.9155272841453552,-23.986814498901367,-9.09423828125,7
1734787465.3314624,-0.5888671875,-0.1697998046875,0.1405029296875,-10.803221702575684,-13.549803733825684,-5.310058116912842,7
1734787465.4513063,-0.7109375,-0.1514892578125,0.1424560546875,-9.033203125,-16.05224609375,-12.878417015075684,7
1734787465.5711975,-0.9229736328125,-0.0911865234375,0.1483154296875,-2.746581792831421,3.906249761581421,-10.681151390075684,7
1734787465.6914167,-1.1951904296875,-0.088623046875,0.119873046875,1.3427733182907104,-11.047362327575684,-9.09423828125,7
1734787465.811886,-1.1058349609375,-0.1976318359375,0.2049560546875,-1.5869139432907104,7.873534679412842,3.967284917831421,7
1734787465.931424,-1.3612060546875,-0.1143798828125,0.27685546875,-3.112792730331421,-4.2724609375,0.1831054538488388,7
1734787466.0514567,-1.4681396484375,-0.2069091796875,0.273193359375,4.5166015625,-0.7934569716453552,12.634276390075684,7
1734787466.1723573,-1.2322998046875,-0.228271484375,0.202880859375,0.7324218153953552,3.112792730331421,9.3994140625,7
1734787466.2914224,-1.16650390625,-0.1890869140625,0.1712646484375,-1.15966796875,-13.610838890075684,3.356933355331421,7
1734787466.412323,-0.88720703125,-0.1949462890625,0.16064453125,1.3427733182907104,-0.1220703050494194,2.50244140625,7
1734787466.5322685,-0.72216796875,-0.1475830078125,0.0770263671875,5.310058116912842,10.681151390075684,-1.3427733182907104,7
1734787466.6514053,-0.465576171875,-0.0865478515625,0.0428466796875,-9.58251953125,46.508785247802734,16.17431640625,7
1734787466.772203,-0.8900146484375,-0.1483154296875,0.200439453125,20.690916061401367,-17.578125,-11.047362327575684,7
1734787466.8920496,-0.861083984375,-0.134521484375,0.2569580078125,-0.4882812201976776,7.568358898162842,3.601073980331421,7
1734787467.0117953,-0.8978271484375,-0.2569580078125,0.29248046875,-0.1831054538488388,0.1220703050494194,-1.0986328125,7
1734787467.1321,-0.94189453125,-0.2119140625,0.2457275390625,-4.82177734375,8.72802734375,3.662109136581421,7
1734787467.2518725,-0.8936767578125,-0.21484375,0.27001953125,-1.2817381620407104,-2.0751953125,0.4882812201976776,7
1734787467.7540925,-0.9102783203125,-0.22021484375,0.272705078125,4.8828125,1.6479490995407104,5.0048828125,8
1734787467.7549908,-0.936767578125,-0.2330322265625,0.249267578125,3.540038824081421,3.356933355331421,0.3662109076976776,8
1734787467.7549908,-0.9251708984375,-0.2276611328125,0.2669677734375,1.4038084745407104,-0.3662109076976776,1.4648436307907104,8
1734787467.755987,-0.9306640625,-0.2216796875,0.2607421875,0.3662109076976776,4.39453125,1.8920897245407104,8
1734787467.850982,-0.933837890625,-0.221435546875,0.254638671875,-0.8544921278953552,1.220703125,1.2817381620407104,8
1734787468.0312982,-0.915283203125,-0.2369384765625,0.2684326171875,-0.2441406100988388,2.38037109375,2.0751953125,8
1734787468.0908206,-0.90771484375,-0.2352294921875,0.273681640625,0.6103515625,1.5258787870407104,2.13623046875,8
1734787468.212214,-0.92236328125,-0.240478515625,0.2708740234375,1.03759765625,2.807616949081421,0.30517578125,8
1734787468.3320994,-0.915283203125,-0.2471923828125,0.27099609375,0.7324218153953552,0.30517578125,1.03759765625,8
1734787468.4520009,-0.913330078125,-0.2552490234375,0.27685546875,-0.54931640625,-0.6103515625,1.7700194120407104,8
1734787468.5715823,-0.886962890625,-0.2388916015625,0.2608642578125,-1.0986328125,-5.310058116912842,-0.9765624403953552,8
1734787468.6913233,-0.8218994140625,-0.2125244140625,0.21484375,-0.9765624403953552,-26.306150436401367,-13.061522483825684,8
1734787468.811591,-0.613037109375,-0.1461181640625,0.13525390625,-9.27734375,-10.131834983825684,-12.023924827575684,8
1734787468.931079,-0.76953125,-0.1083984375,0.07763671875,-1.8310545682907104,-15.624999046325684,-15.197752952575684,8
1734787469.0515645,-0.9306640625,-0.11572265625,0.0474853515625,5.859374523162842,-24.047849655151367,-17.9443359375,8
1734787469.1711588,-1.007568359375,-0.105224609375,0.0911865234375,-3.173827886581421,29.541013717651367,-2.01416015625,8
1734787469.2919576,-1.0751953125,-0.1435546875,0.1353759765625,-2.13623046875,6.835937023162842,-2.50244140625,8
1734787469.412217,-1.1639404296875,-0.1502685546875,0.2139892578125,-7.202147960662842,11.230467796325684,-3.906249761581421,8
1734787469.5319157,-1.3961181640625,-0.148681640625,0.24755859375,-2.563476324081421,-1.2817381620407104,4.21142578125,8
1734787469.6514611,-1.524658203125,-0.1759033203125,0.24462890625,6.774901866912842,0.9155272841453552,6.774901866912842,8
1734787469.7716212,-1.224365234375,-0.192626953125,0.2061767578125,-0.1831054538488388,-6.286620616912842,-2.197265625,8
1734787469.8919117,-0.9788818359375,-0.16796875,0.1710205078125,-0.8544921278953552,-2.685546636581421,9.94873046875,8
1734787470.0116599,-0.8150634765625,-0.12109375,0.1417236328125,-1.03759765625,-2.563476324081421,7.629394054412842,8
1734787470.13193,-0.6014404296875,-0.0833740234375,0.0802001953125,2.38037109375,18.4326171875,8.60595703125,8
1734787470.2515497,-0.59326171875,-0.0855712890625,0.107666015625,5.310058116912842,40.466304779052734,12.451170921325684,8
1734787470.3714774,-0.9713134765625,-0.2528076171875,0.216796875,15.624999046325684,-36.80419921875,-17.27294921875,8
1734787470.4920127,-0.852294921875,-0.1968994140625,0.261474609375,5.615233898162842,5.0048828125,-0.1831054538488388,8
1734787470.6113238,-0.9515380859375,-0.1644287109375,0.245361328125,3.601073980331421,8.9111328125,1.4038084745407104,8
1734787470.7322462,-0.9141845703125,-0.1905517578125,0.2412109375,-1.3427733182907104,1.3427733182907104,-2.38037109375,8
1734787471.2485147,-0.94140625,-0.20263671875,0.2337646484375,-4.0283203125,2.3193359375,0.30517578125,9
1734787471.249515,-0.9215087890625,-0.2091064453125,0.235595703125,-4.33349609375,2.563476324081421,4.5166015625,9
1734787471.249515,-0.9393310546875,-0.194580078125,0.2353515625,-4.08935546875,-0.3662109076976776,5.371093273162842,9
1734787471.2505155,-0.9429931640625,-0.1944580078125,0.236328125,-4.638671875,2.868652105331421,3.967284917831421,9
1734787471.331582,-0.9376220703125,-0.2149658203125,0.2342529296875,-5.187987804412842,-1.15966796875,2.38037109375,9
1734787471.4519029,-0.91943359375,-0.192626953125,0.246337890625,-3.662109136581421,-1.15966796875,3.051757574081421,9
1734787471.571148,-0.9429931640625,-0.203369140625,0.248779296875,0.6103515625,-0.1220703050494194,0.7934569716453552,9
1734787471.6913874,-0.9212646484375,-0.2127685546875,0.254150390625,1.15966796875,1.3427733182907104,-0.1220703050494194,9
1734787471.811906,-0.9261474609375,-0.214111328125,0.2496337890625,1.2817381620407104,2.50244140625,0.30517578125,9
1734787471.9320436,-0.936279296875,-0.199951171875,0.2474365234375,-0.4882812201976776,-5.493163585662842,-1.220703125,9
1734787472.0510497,-0.9359130859375,-0.20556640625,0.234130859375,0.2441406100988388,-3.112792730331421,-0.9155272841453552,9
1734787472.1713421,-0.8892822265625,-0.1846923828125,0.2099609375,0.1220703050494194,-15.808104515075684,-10.986327171325684,9
1734787472.2912414,-0.6263427734375,-0.1422119140625,0.1396484375,-7.690429210662842,0.30517578125,-3.112792730331421,9
1734787472.4114301,-0.6910400390625,-0.1270751953125,0.12841796875,-5.676269054412842,-4.5166015625,-8.97216796875,9
1734787472.5316684,-0.876708984375,-0.084716796875,0.156982421875,-1.2817381620407104,-10.253905296325684,2.807616949081421,9
1734787472.6512291,-0.92919921875,-0.1114501953125,0.1116943359375,-1.7089842557907104,-14.160155296325684,2.868652105331421,9
1734787472.7714012,-1.1170654296875,-0.2286376953125,0.153076171875,-8.72802734375,-9.21630859375,14.099120140075684,9
1734787472.891842,-1.2506103515625,-0.2308349609375,0.2625732421875,1.03759765625,-5.371093273162842,0.7934569716453552,9
1734787473.0114493,-1.5428466796875,-0.30126953125,0.2474365234375,-1.7700194120407104,14.526366233825684,1.3427733182907104,9
1734787473.1323938,-1.3045654296875,-0.2369384765625,0.2252197265625,2.0751953125,4.08935546875,-0.9155272841453552,9
1734787473.2517495,-1.0987548828125,-0.2510986328125,0.1595458984375,6.713866710662842,-19.83642578125,-8.23974609375,9
1734787473.3716934,-1.007568359375,-0.1934814453125,0.1771240234375,-2.01416015625,0.4882812201976776,-0.3662109076976776,9
1734787473.4919605,-0.8753662109375,-0.1649169921875,0.1529541015625,-6.896972179412842,10.620116233825684,-6.713866710662842,9
1734787473.6111593,-0.60302734375,-0.1353759765625,0.094482421875,6.103515148162842,23.254392623901367,4.94384765625,9
1734787473.731883,-0.501953125,-0.1324462890625,0.115966796875,6.347655773162842,46.508785247802734,16.54052734375,9
1734787473.851663,-1.0816650390625,-0.2193603515625,0.2613525390625,18.4326171875,-32.71484375,-7.019042491912842,9
1734787473.9712799,-0.8560791015625,-0.200439453125,0.2528076171875,-0.4272460639476776,5.065917491912842,0.0610351525247097,9
1734787474.0917745,-1.005615234375,-0.177978515625,0.2109375,1.8310545682907104,5.065917491912842,1.03759765625,9
1734787474.2117167,-0.9151611328125,-0.2080078125,0.2578125,6.286620616912842,-7.141112804412842,-4.0283203125,9
1734787474.75795,-0.9384765625,-0.19580078125,0.217529296875,4.21142578125,-5.249022960662842,-3.051757574081421,10
1734787474.7589524,-0.9510498046875,-0.214599609375,0.1954345703125,2.624511480331421,-4.82177734375,-1.2817381620407104,10
1734787474.7589524,-0.9329833984375,-0.20849609375,0.2117919921875,-1.220703125,-0.3662109076976776,1.2817381620407104,10
1734787474.7599525,-0.9737548828125,-0.2054443359375,0.2275390625,-0.6103515625,0.0610351525247097,0.9765624403953552,10
1734787474.8110528,-0.9324951171875,-0.2239990234375,0.2249755859375,0.7934569716453552,5.859374523162842,0.8544921278953552,10
1734787474.9308672,-0.8916015625,-0.16748046875,0.190673828125,6.713866710662842,-0.1831054538488388,-5.737304210662842,10
1734787475.0513055,-0.9483642578125,-0.20556640625,0.250244140625,10.070799827575684,-1.8920897245407104,-3.784179449081421,10
1734787475.1719136,-0.9224853515625,-0.2127685546875,0.2548828125,5.249022960662842,1.7089842557907104,-4.39453125,10
1734787475.2917097,-0.8299560546875,-0.166015625,0.2281494140625,7.629394054412842,22.460935592651367,-3.784179449081421,10
1734787475.41178,-0.9677734375,-0.1397705078125,0.244140625,-6.347655773162842,-3.662109136581421,-5.920409679412842,10
1734787475.5315042,-0.9522705078125,-0.1693115234375,0.2103271484375,-16.78466796875,-7.934569835662842,1.5258787870407104,10
1734787475.711009,-0.9146728515625,-0.1448974609375,0.2041015625,-9.21630859375,-14.099120140075684,-4.8828125,10
1734787475.770941,-0.793212890625,-0.1119384765625,0.1634521484375,-12.390135765075684,-12.451170921325684,-3.417968511581421,10
1734787475.8913767,-0.6710205078125,-0.118896484375,0.09423828125,-6.103515148162842,9.46044921875,6.652831554412842,10
1734787476.011196,-0.787109375,-0.119384765625,0.09375,3.295898199081421,-6.408690929412842,-7.019042491912842,10
1734787476.1311452,-0.920166015625,-0.089111328125,0.1439208984375,-4.7607421875,-22.155759811401367,-7.568358898162842,10
1734787476.251184,-1.044677734375,-0.1768798828125,0.1607666015625,-14.099120140075684,-12.207030296325684,-2.929687261581421,10
1734787476.3717718,-1.3765869140625,-0.085205078125,0.15869140625,-16.4794921875,-14.709471702575684,-10.559081077575684,10
1734787476.492015,-1.4356689453125,-0.076904296875,0.0654296875,-0.7324218153953552,12.512206077575684,-0.9155272841453552,10
1734787476.6117015,-1.521728515625,-0.1068115234375,0.26708984375,-1.15966796875,1.4038084745407104,-5.432128429412842,10
1734787476.7316902,-1.2161865234375,-0.1025390625,0.20166015625,-1.5869139432907104,19.71435546875,3.967284917831421,10
1734787476.8512816,-1.051513671875,-0.08984375,0.1806640625,-1.220703125,-7.690429210662842,-2.44140625,10
1734787476.9714475,-0.904296875,-0.0443115234375,0.135986328125,1.4038084745407104,6.347655773162842,-6.835937023162842,10
1734787477.0916681,-0.5748291015625,-0.0496826171875,0.096923828125,10.070799827575684,22.888181686401367,10.742186546325684,10
1734787477.2118988,-0.608642578125,-0.155029296875,0.123046875,15.869139671325684,41.687007904052734,23.315427780151367,10
1734787477.3311572,-0.8341064453125,-0.1337890625,0.2325439453125,25.939939498901367,-8.30078125,7.934569835662842,10
1734787477.4517426,-0.9207763671875,-0.142578125,0.2464599609375,-9.09423828125,-0.3662109076976776,-2.990722417831421,10
1734787477.5717819,-0.986083984375,-0.2060546875,0.2738037109375,-4.82177734375,-13.549803733825684,-1.9531248807907104,10
1734787477.691581,-0.9547119140625,-0.2568359375,0.212646484375,2.197265625,-8.4228515625,2.197265625,10
1734787478.279246,-0.9957275390625,-0.1346435546875,0.2030029296875,1.7700194120407104,-2.44140625,-3.540038824081421,11
1734787478.2801564,-0.923095703125,-0.1822509765625,0.29052734375,-3.845214605331421,-0.30517578125,-5.615233898162842,11
1734787478.2811563,-1.0078125,-0.1856689453125,0.23291015625,2.01416015625,8.85009765625,-6.042479991912842,11
1734787478.2815425,-0.8775634765625,-0.123779296875,0.2462158203125,-0.7934569716453552,1.9531248807907104,-2.929687261581421,11
1734787478.2915623,-0.944091796875,-0.1065673828125,0.2613525390625,0.8544921278953552,-1.220703125,-4.8828125,11
1734787478.4113057,-0.9710693359375,-0.1114501953125,0.2752685546875,7.080077648162842,-1.4648436307907104,0.9155272841453552,11
1734787478.5308278,-0.89306640625,-0.1654052734375,0.2352294921875,6.835937023162842,-3.356933355331421,1.15966796875,11
1734787478.6517825,-0.9833984375,-0.1588134765625,0.2720947265625,-1.5258787870407104,-6.042479991912842,2.01416015625,11
1734787478.7718441,-0.9364013671875,-0.13720703125,0.2646484375,-6.835937023162842,2.25830078125,1.4648436307907104,11
1734787478.8920848,-0.9290771484375,-0.1590576171875,0.2430419921875,-2.929687261581421,-4.21142578125,2.868652105331421,11
1734787479.0113938,-0.928466796875,-0.1407470703125,0.26904296875,-6.408690929412842,6.530761241912842,3.234863042831421,11
1734787479.1314652,-0.903564453125,-0.1494140625,0.249755859375,-6.103515148162842,0.1831054538488388,4.08935546875,11
1734787479.2507062,-0.8388671875,-0.1502685546875,0.207763671875,-7.324218273162842,-15.869139671325684,-2.01416015625,11
1734787479.3715944,-0.728759765625,-0.0916748046875,0.1473388671875,-15.563963890075684,-7.812499523162842,2.13623046875,11
1734787479.431099,-0.6646728515625,-0.0821533203125,0.145751953125,-5.859374523162842,2.0751953125,-10.131834983825684,11
1734787479.5509393,-0.9169921875,-0.0618896484375,0.1435546875,18.1884765625,-14.343260765075684,-14.404295921325684,11
1734787479.6707056,-0.9246826171875,-0.146484375,0.13427734375,8.7890625,-23.010251998901367,-7.934569835662842,11
1734787479.7914867,-1.220458984375,-0.10498046875,0.2318115234375,-13.977049827575684,-13.061522483825684,-11.108397483825684,11
1734787479.9118702,-1.5518798828125,-0.101318359375,0.194091796875,-6.286620616912842,9.46044921875,-5.676269054412842,11
1734787480.0319157,-1.6025390625,-0.0821533203125,0.23046875,4.69970703125,2.3193359375,3.417968511581421,11
1734787480.151665,-1.26220703125,-0.1180419921875,0.23046875,-2.44140625,2.50244140625,0.4882812201976776,11
1734787480.272134,-1.098876953125,-0.0865478515625,0.20068359375,-4.638671875,8.6669921875,6.469726085662842,11
1734787480.391997,-0.8719482421875,-0.0660400390625,0.1744384765625,-6.164550304412842,4.45556640625,0.4882812201976776,11
1734787480.5114467,-0.5596923828125,-0.0703125,0.14404296875,-8.36181640625,34.36279296875,11.352538108825684,11
1734787480.6318429,-0.5111083984375,-0.0460205078125,0.09912109375,3.417968511581421,44.860836029052734,19.287109375,11
1734787480.8118048,-0.979248046875,-0.0989990234375,0.1953125,20.263669967651367,-28.076169967651367,-1.9531248807907104,11
1734787480.8718638,-0.9754638671875,-0.0877685546875,0.269287109375,-8.056640625,1.220703125,-0.4882812201976776,11
1734787480.99157,-0.9521484375,-0.1685791015625,0.2823486328125,3.356933355331421,-0.4882812201976776,-0.4882812201976776,11
1734787481.1115804,-0.953369140625,-0.1343994140625,0.2625732421875,1.4038084745407104,3.051757574081421,2.563476324081421,11
1734787481.2316828,-0.95458984375,-0.153076171875,0.2696533203125,0.9155272841453552,1.03759765625,-1.8310545682907104,11
1734787481.792111,-0.92822265625,-0.15869140625,0.2598876953125,2.197265625,2.563476324081421,-1.0986328125,12
1734787481.7926087,-0.9534912109375,-0.1483154296875,0.2620849609375,-1.7089842557907104,-1.7089842557907104,-0.0610351525247097,12
1734787481.793635,-0.9420166015625,-0.1556396484375,0.262451171875,-3.295898199081421,0.0,2.13623046875,12
1734787481.793635,-0.958984375,-0.1392822265625,0.2640380859375,-4.69970703125,2.624511480331421,1.9531248807907104,12
1734787481.830988,-0.9451904296875,-0.13720703125,0.2674560546875,-3.356933355331421,1.0986328125,1.8920897245407104,12
1734787481.9511964,-0.95263671875,-0.134033203125,0.2569580078125,-3.051757574081421,-0.9155272841453552,0.9765624403953552,12
1734787482.0715725,-0.9459228515625,-0.148193359375,0.252685546875,-1.7700194120407104,0.4882812201976776,-1.15966796875,12
1734787482.1919177,-0.9302978515625,-0.1400146484375,0.279052734375,0.6713866591453552,0.6103515625,1.2817381620407104,12
1734787482.3111124,-0.9461669921875,-0.1341552734375,0.27001953125,2.685546636581421,0.7324218153953552,-0.7324218153953552,12
1734787482.4318779,-0.9393310546875,-0.177490234375,0.2747802734375,1.220703125,-1.7700194120407104,0.1831054538488388,12
1734787482.5518522,-0.9344482421875,-0.1458740234375,0.265869140625,-1.03759765625,-3.356933355331421,0.6103515625,12
1734787482.6710572,-0.845703125,-0.1300048828125,0.2423095703125,-1.4648436307907104,-15.869139671325684,-10.986327171325684,12
1734787482.7905633,-0.5062255859375,-0.109619140625,0.1475830078125,-17.08984375,6.286620616912842,-9.033203125,12
1734787482.9113674,-0.609619140625,0.0086669921875,0.0972900390625,1.4648436307907104,-13.916014671325684,-12.329100608825684,12
1734787483.0312693,-1.0584716796875,0.0006103515625,0.0662841796875,11.901854515075684,-11.596678733825684,-9.21630859375,12
1734787483.1517138,-1.0333251953125,-0.069091796875,0.1463623046875,-1.0986328125,-13.916014671325684,-10.620116233825684,12
1734787483.270691,-1.2681884765625,-0.0830078125,0.2099609375,-15.563963890075684,-1.9531248807907104,5.554198741912842,12
1734787483.3912983,-1.6177978515625,-0.0052490234375,0.20947265625,-0.1220703050494194,-10.375975608825684,-6.103515148162842,12
1734787483.5112932,-1.55908203125,-0.08984375,0.221923828125,5.737304210662842,13.427733421325684,7.507323741912842,12
1734787483.6317008,-1.1824951171875,-0.0528564453125,0.1993408203125,4.2724609375,2.990722417831421,1.5869139432907104,12
1734787483.751464,-1.0335693359375,-0.0699462890625,0.13525390625,2.563476324081421,8.23974609375,4.8828125,12
1734787483.871469,-0.8426513671875,-0.084716796875,0.123291015625,1.220703125,-3.601073980331421,2.685546636581421,12
1734787483.9919288,-0.660888671875,-0.0775146484375,0.0908203125,-12.084959983825684,27.404783248901367,15.747069358825684,12
1734787484.1114657,-0.55322265625,-0.0865478515625,0.1295166015625,-6.408690929412842,36.7431640625,12.695311546325684,12
1734787484.231731,-1.06640625,-0.1759033203125,0.2362060546875,10.009765625,-9.58251953125,6.896972179412842,12
1734787484.3513424,-0.9210205078125,-0.09423828125,0.2781982421875,3.784179449081421,9.82666015625,4.82177734375,12
1734787484.471134,-0.9984130859375,-0.14013671875,0.2998046875,-7.324218273162842,-2.746581792831421,1.5258787870407104,12
1734787484.591994,-0.89453125,-0.1590576171875,0.3193359375,-1.03759765625,-0.9765624403953552,5.554198741912842,12
1734787484.711457,-0.95947265625,-0.1336669921875,0.291259765625,-0.54931640625,3.173827886581421,6.347655773162842,12
1734787485.3026145,-0.947265625,-0.16845703125,0.2811279296875,1.4648436307907104,-0.4272460639476776,1.15966796875,13
1734787485.3045547,-0.9398193359375,-0.17431640625,0.296142578125,2.13623046875,-0.1220703050494194,1.15966796875,13
1734787485.3055334,-0.93798828125,-0.160400390625,0.2857666015625,-1.5869139432907104,-1.3427733182907104,-1.4648436307907104,13
1734787485.3065324,-0.916259765625,-0.1783447265625,0.3115234375,0.6103515625,-0.6713866591453552,0.4272460639476776,13
1734787485.3113399,-0.944580078125,-0.1854248046875,0.296875,-1.0986328125,-0.9765624403953552,1.15966796875,13
1734787485.4314926,-0.9202880859375,-0.1695556640625,0.2926025390625,-0.0610351525247097,1.4648436307907104,1.2817381620407104,13
1734787485.5509639,-0.91162109375,-0.176513671875,0.2957763671875,2.13623046875,-0.6103515625,-0.2441406100988388,13
1734787485.6711717,-0.9227294921875,-0.189208984375,0.2965087890625,3.356933355331421,-0.7934569716453552,-1.3427733182907104,13
1734787485.7911143,-0.9461669921875,-0.1907958984375,0.29541015625,0.30517578125,-3.601073980331421,-0.30517578125,13
1734787485.9117131,-0.9278564453125,-0.19140625,0.29931640625,-1.5258787870407104,-0.3662109076976776,0.8544921278953552,13
1734787486.031112,-0.9202880859375,-0.171875,0.2908935546875,-2.563476324081421,-0.9155272841453552,-0.1220703050494194,13
1734787486.150627,-0.91796875,-0.179931640625,0.2935791015625,-1.6479490995407104,-0.2441406100988388,1.6479490995407104,13
1734787486.2710578,-0.895751953125,-0.1793212890625,0.283203125,-0.4272460639476776,-9.3994140625,-4.21142578125,13
1734787486.39071,-0.79443359375,-0.123046875,0.2303466796875,0.2441406100988388,-12.512206077575684,-11.657713890075684,13
1734787486.5107675,-0.6392822265625,-0.0609130859375,0.14892578125,2.13623046875,4.5166015625,-7.324218273162842,13
1734787486.6310656,-0.7681884765625,-0.119384765625,0.083740234375,-3.601073980331421,10.070799827575684,-7.995604991912842,13
1734787486.8115973,-0.9852294921875,-0.124267578125,0.2176513671875,-11.718749046325684,-31.188962936401367,-2.990722417831421,13
1734787486.871572,-0.9078369140625,-0.1402587890625,0.2843017578125,-11.413573265075684,3.967284917831421,6.103515148162842,13
1734787486.9912374,-1.1705322265625,-0.14501953125,0.309814453125,-6.408690929412842,-4.82177734375,3.356933355331421,13
1734787487.111798,-1.4388427734375,-0.1864013671875,0.421630859375,3.051757574081421,-16.54052734375,-1.15966796875,13
1734787487.2309735,-1.5093994140625,-0.1656494140625,0.3404541015625,9.09423828125,6.713866710662842,8.23974609375,13
1734787487.3516443,-1.2265625,-0.16162109375,0.3037109375,3.540038824081421,-2.44140625,-1.7089842557907104,13
1734787487.471239,-1.068359375,-0.1817626953125,0.2840576171875,3.784179449081421,2.197265625,6.042479991912842,13
1734787487.5912204,-0.83349609375,-0.1318359375,0.2218017578125,6.835937023162842,-2.746581792831421,2.807616949081421,13
1734787487.7119853,-0.5811767578125,-0.12255859375,0.0968017578125,8.1787109375,20.141599655151367,9.21630859375,13
1734787487.8317912,-0.455810546875,-0.107421875,0.1156005859375,8.4228515625,39.4287109375,21.301267623901367,13
1734787487.9514549,-0.8955078125,-0.24169921875,0.2823486328125,19.22607421875,-31.311033248901367,-16.357421875,13
1734787488.071953,-0.7960205078125,-0.175048828125,0.288330078125,3.723144292831421,17.08984375,0.8544921278953552,13
1734787488.191808,-1.012451171875,-0.2210693359375,0.2432861328125,-0.54931640625,4.08935546875,-1.7089842557907104,13
1734787488.311437,-0.90283203125,-0.21728515625,0.2833251953125,-1.5258787870407104,1.8310545682907104,1.9531248807907104,13
1734787488.8278954,-0.9608154296875,-0.1986083984375,0.2557373046875,-3.967284917831421,3.051757574081421,1.2817381620407104,14
1734787488.828897,-0.935302734375,-0.200439453125,0.2628173828125,-2.50244140625,-0.9155272841453552,1.8920897245407104,14
1734787488.828897,-0.8875732421875,-0.2236328125,0.2813720703125,-7.080077648162842,-0.0610351525247097,3.723144292831421,14
1734787488.8298972,-0.9261474609375,-0.1988525390625,0.2689208984375,-3.662109136581421,0.1831054538488388,3.356933355331421,14
1734787488.9112074,-0.9415283203125,-0.1983642578125,0.2894287109375,0.3662109076976776,4.0283203125,0.54931640625,14
1734787489.031214,-0.9276123046875,-0.2205810546875,0.2744140625,2.563476324081421,2.624511480331421,-0.4272460639476776,14
1734787489.1514254,-0.9111328125,-0.2220458984375,0.2928466796875,3.051757574081421,1.03759765625,0.3662109076976776,14
1734787489.2719002,-0.9024658203125,-0.223388671875,0.299560546875,1.4038084745407104,4.5166015625,1.5869139432907104,14
1734787489.39175,-0.9019775390625,-0.232421875,0.2938232421875,-0.1831054538488388,3.051757574081421,1.4038084745407104,14
1734787489.511702,-0.9111328125,-0.2432861328125,0.294189453125,-2.929687261581421,-1.8310545682907104,1.8310545682907104,14
1734787489.630719,-0.9110107421875,-0.224609375,0.2952880859375,-2.13623046875,-4.2724609375,-0.3662109076976776,14
1734787489.7511773,-0.85107421875,-0.185302734375,0.271484375,-0.2441406100988388,-13.183592796325684,-7.568358898162842,14
1734787489.8715305,-0.62939453125,-0.1455078125,0.203369140625,-0.3662109076976776,-6.835937023162842,-12.756346702575684,14
1734787489.9913192,-0.5972900390625,-0.0797119140625,0.1126708984375,0.0610351525247097,1.7700194120407104,-6.958007335662842,14
1734787490.1111948,-0.9913330078125,-0.1015625,0.1455078125,2.3193359375,-16.6015625,-18.310546875,14
1734787490.2307343,-0.965576171875,-0.104736328125,0.165283203125,-10.986327171325684,-10.070799827575684,-12.939452171325684,14
1734787490.3518949,-1.1002197265625,-0.1590576171875,0.269775390625,-11.657713890075684,-14.038084983825684,-10.131834983825684,14
1734787490.4712903,-1.5247802734375,-0.124755859375,0.2850341796875,2.197265625,-4.0283203125,-3.112792730331421,14
1734787490.591772,-1.65283203125,-0.131591796875,0.2530517578125,6.225585460662842,-1.4648436307907104,9.33837890625,14
1734787490.7715325,-1.290771484375,-0.1610107421875,0.2581787109375,-5.432128429412842,-8.7890625,3.723144292831421,14
1734787490.8313484,-1.106689453125,-0.148681640625,0.23095703125,-2.50244140625,4.7607421875,1.3427733182907104,14
1734787490.951803,-0.8602294921875,-0.09619140625,0.1494140625,1.4648436307907104,9.3994140625,9.1552734375,14
1734787491.072349,-0.581787109375,-0.085693359375,0.0723876953125,-1.8920897245407104,22.888181686401367,10.925292015075684,14
1734787491.1912003,-0.528076171875,-0.1005859375,0.0614013671875,-1.0986328125,52.795406341552734,27.099607467651367,14
1734787491.3117864,-0.82080078125,-0.271728515625,0.2320556640625,24.169919967651367,-20.507810592651367,5.798339366912842,14
1734787491.431226,-0.8262939453125,-0.2117919921875,0.25830078125,2.197265625,9.09423828125,11.291502952575684,14
1734787491.5510497,-1.0126953125,-0.2320556640625,0.285888671875,-5.798339366912842,-2.868652105331421,-2.563476324081421,14
1734787491.6718829,-0.857177734375,-0.2545166015625,0.28271484375,-4.5166015625,1.5258787870407104,-1.03759765625,14
1734787491.79148,-0.9617919921875,-0.2344970703125,0.230224609375,-3.051757574081421,1.9531248807907104,0.7934569716453552,14
1734787492.3522222,-0.9168701171875,-0.239990234375,0.256103515625,-0.2441406100988388,-4.08935546875,0.30517578125,15
1734787492.3532228,-0.9139404296875,-0.227294921875,0.2786865234375,-0.9155272841453552,1.220703125,1.2817381620407104,15
1734787492.3532228,-0.921142578125,-0.2315673828125,0.2623291015625,-1.6479490995407104,3.662109136581421,0.4882812201976776,15
1734787492.354891,-0.9061279296875,-0.2376708984375,0.2725830078125,-0.2441406100988388,1.4648436307907104,0.30517578125,15
1734787492.3913355,-0.92138671875,-0.2432861328125,0.2705078125,-0.7934569716453552,-0.30517578125,-0.2441406100988388,15
1734787492.510655,-0.90283203125,-0.258544921875,0.27734375,-0.6713866591453552,2.929687261581421,0.9155272841453552,15
1734787492.6313374,-0.9356689453125,-0.23193359375,0.274658203125,-0.6713866591453552,1.0986328125,2.38037109375,15
1734787492.7516718,-0.9420166015625,-0.2432861328125,0.283203125,-2.13623046875,0.0,0.9765624403953552,15
1734787492.8712027,-0.901123046875,-0.2364501953125,0.284423828125,-1.3427733182907104,2.990722417831421,-0.6713866591453552,15
1734787492.997396,-0.9405517578125,-0.2205810546875,0.2783203125,-0.6713866591453552,1.15966796875,-0.4882812201976776,15
1734787493.1107001,-0.9268798828125,-0.22802734375,0.2884521484375,1.0986328125,-2.13623046875,0.3662109076976776,15
1734787493.2311635,-0.86376953125,-0.2391357421875,0.271240234375,3.295898199081421,-13.732909202575684,-7.080077648162842,15
1734787493.3511791,-0.755615234375,-0.158447265625,0.1934814453125,0.6103515625,-22.033689498901367,-20.446775436401367,15
1734787493.470716,-0.573974609375,-0.072021484375,0.0985107421875,1.2817381620407104,-9.3994140625,-19.83642578125,15
1734787493.5307474,-0.7855224609375,-0.1434326171875,0.1239013671875,8.48388671875,-14.038084983825684,-17.7001953125,15
1734787493.650653,-0.9844970703125,-0.1412353515625,0.1468505859375,-9.33837890625,-3.417968511581421,-0.6713866591453552,15
1734787493.771562,-0.986328125,-0.130859375,0.238037109375,-16.11328125,8.30078125,5.493163585662842,15
1734787493.8917773,-1.28173828125,-0.1446533203125,0.27294921875,-11.291502952575684,-14.038084983825684,-2.197265625,15
1734787494.0112884,-1.615234375,-0.1070556640625,0.2191162109375,-2.197265625,5.493163585662842,1.8920897245407104,15
1734787494.1314754,-1.4527587890625,-0.184814453125,0.2510986328125,4.7607421875,-3.417968511581421,0.3662109076976776,15
1734787494.2512841,-1.2171630859375,-0.19775390625,0.237060546875,-0.4882812201976776,3.051757574081421,2.868652105331421,15
1734787494.3716724,-0.9942626953125,-0.1590576171875,0.2034912109375,3.723144292831421,3.051757574081421,7.751464366912842,15
1734787494.4910676,-0.7431640625,-0.090576171875,0.1639404296875,7.934569835662842,2.50244140625,-1.220703125,15
1734787494.6116042,-0.4207763671875,-0.06591796875,0.051025390625,1.3427733182907104,47.912593841552734,15.747069358825684,15
1734787494.7316,-0.6273193359375,-0.1630859375,0.1695556640625,5.432128429412842,31.188962936401367,17.08984375,15
1734787494.8510346,-1.098876953125,-0.0836181640625,0.2586669921875,6.225585460662842,28.320310592651367,3.662109136581421,15
1734787494.9720275,-0.889892578125,-0.25,0.3485107421875,-1.3427733182907104,-23.071287155151367,-7.080077648162842,15
1734787495.0911355,-0.918212890625,-0.2412109375,0.2974853515625,-0.7934569716453552,3.051757574081421,4.33349609375,15
1734787495.2113864,-0.9432373046875,-0.147216796875,0.2847900390625,-3.417968511581421,2.25830078125,-10.559081077575684,15
1734787495.3318417,-0.8900146484375,-0.187744140625,0.2662353515625,8.60595703125,-0.54931640625,3.112792730331421,15
1734787495.8820896,-0.910400390625,-0.1851806640625,0.317626953125,1.8310545682907104,5.920409679412842,3.112792730331421,16
1734787495.8830898,-0.9432373046875,-0.189697265625,0.286376953125,-6.591796398162842,4.69970703125,1.3427733182907104,16
1734787495.8834212,-0.9290771484375,-0.184814453125,0.3011474609375,-3.417968511581421,2.624511480331421,2.3193359375,16
1734787495.8834212,-0.89599609375,-0.121826171875,0.2803955078125,6.408690929412842,7.202147960662842,8.72802734375,16
1734787495.9309545,-0.9010009765625,-0.2890625,0.2857666015625,6.225585460662842,-8.056640625,8.30078125,16
1734787496.0510688,-0.983642578125,-0.2047119140625,0.270751953125,-6.225585460662842,-3.906249761581421,-2.25830078125,16
1734787496.1704104,-0.9346923828125,-0.2283935546875,0.265869140625,-1.5869139432907104,1.6479490995407104,1.6479490995407104,16
1734787496.291607,-0.9146728515625,-0.2125244140625,0.27587890625,4.33349609375,3.112792730331421,3.051757574081421,16
1734787496.471477,-0.9388427734375,-0.2220458984375,0.276123046875,1.6479490995407104,-0.3662109076976776,1.9531248807907104,16
1734787496.5316494,-0.93701171875,-0.231201171875,0.2874755859375,-1.6479490995407104,-0.1220703050494194,1.4038084745407104,16
1734787496.6511378,-0.8572998046875,-0.2293701171875,0.28173828125,0.30517578125,-10.070799827575684,-3.906249761581421,16
1734787496.7712336,-0.7852783203125,-0.2083740234375,0.2135009765625,-2.563476324081421,-20.874021530151367,-9.6435546875,16
1734787496.8911908,-0.5701904296875,-0.130615234375,0.1044921875,-7.446288585662842,-20.385740280151367,-13.366698265075684,16
1734787497.0111916,-0.718017578125,-0.1094970703125,0.1527099609375,-5.615233898162842,-9.21630859375,-8.544921875,16
1734787497.1310031,-0.9976806640625,-0.1004638671875,0.1328125,-2.563476324081421,4.638671875,-5.126952648162842,16
1734787497.2513466,-1.0882568359375,-0.1256103515625,0.1744384765625,-8.11767578125,-3.051757574081421,-9.765625,16
1734787497.3714826,-1.180419921875,-0.160888671875,0.249755859375,-9.09423828125,15.991209983825684,0.0610351525247097,16
1734787497.4915752,-1.468017578125,-0.2015380859375,0.3048095703125,-2.868652105331421,-7.385253429412842,-5.981444835662842,16
1734787497.611647,-1.5440673828125,-0.1807861328125,0.26318359375,0.8544921278953552,-4.69970703125,4.0283203125,16
1734787497.7321968,-1.1854248046875,-0.1617431640625,0.26953125,0.7934569716453552,0.9765624403953552,-0.8544921278953552,16
1734787497.8619084,-1.0775146484375,-0.158203125,0.1964111328125,5.126952648162842,5.981444835662842,3.784179449081421,16
1734787497.971929,-0.8385009765625,-0.112548828125,0.1395263671875,5.371093273162842,1.8310545682907104,5.432128429412842,16
1734787498.0916233,-0.464599609375,-0.0469970703125,0.0809326171875,0.6713866591453552,25.024412155151367,12.634276390075684,16
1734787498.2114546,-0.642578125,-0.1181640625,0.142822265625,6.896972179412842,18.73779296875,15.502928733825684,16
1734787498.3319178,-1.007568359375,-0.13916015625,0.2647705078125,13.183592796325684,-12.390135765075684,-5.737304210662842,16
1734787498.45193,-0.72314453125,-0.293701171875,0.2945556640625,-1.9531248807907104,6.042479991912842,1.5869139432907104,16
1734787498.571492,-0.970458984375,-0.1988525390625,0.240966796875,-0.8544921278953552,13.671874046325684,10.498045921325684,16
1734787498.6911087,-0.918212890625,-0.18994140625,0.26904296875,-2.0751953125,0.54931640625,0.8544921278953552,16
1734787498.8114252,-0.89208984375,-0.239501953125,0.2945556640625,-4.57763671875,-3.234863042831421,2.50244140625,16
1734787499.399711,-0.9337158203125,-0.2242431640625,0.2894287109375,-2.13623046875,0.54931640625,5.371093273162842,17
1734787499.4007607,-0.9368896484375,-0.224609375,0.2764892578125,-2.0751953125,0.6103515625,2.0751953125,17
1734787499.4007607,-0.9066162109375,-0.2431640625,0.28271484375,-2.929687261581421,0.4272460639476776,-0.4272460639476776,17
1734787499.4019158,-0.9202880859375,-0.233154296875,0.28125,-0.9765624403953552,3.234863042831421,0.30517578125,17
1734787499.4110281,-0.89453125,-0.251220703125,0.291015625,2.0751953125,0.0610351525247097,0.7934569716453552,17
1734787499.5312073,-0.8994140625,-0.228271484375,0.302978515625,-1.2817381620407104,0.30517578125,2.807616949081421,17
1734787499.6510065,-0.913818359375,-0.2393798828125,0.293701171875,-1.3427733182907104,-1.5869139432907104,0.54931640625,17
1734787499.771771,-0.9169921875,-0.2320556640625,0.288818359375,0.3662109076976776,0.30517578125,0.7324218153953552,17
1734787499.8915484,-0.9114990234375,-0.2459716796875,0.2943115234375,1.3427733182907104,2.807616949081421,0.54931640625,17
1734787500.0715184,-0.91796875,-0.246337890625,0.303955078125,-0.7934569716453552,3.967284917831421,2.13623046875,17
1734787500.1314044,-0.882568359375,-0.2523193359375,0.2979736328125,-1.15966796875,0.1831054538488388,1.03759765625,17
1734787500.25103,-0.8233642578125,-0.23095703125,0.27392578125,-4.08935546875,-14.343260765075684,-5.859374523162842,17
1734787500.3706954,-0.548095703125,-0.1258544921875,0.1658935546875,-10.253905296325684,-10.009765625,-9.33837890625,17
1734787500.4909267,-0.7579345703125,-0.1240234375,0.12353515625,-3.906249761581421,-17.4560546875,-21.606443405151367,17
1734787500.6111677,-0.8726806640625,-0.1336669921875,0.177001953125,0.1220703050494194,-15.624999046325684,-14.343260765075684,17
1734787500.7309523,-0.9791259765625,-0.1689453125,0.19482421875,-4.638671875,5.493163585662842,0.4882812201976776,17
1734787500.8517523,-1.2691650390625,-0.17041015625,0.2352294921875,-7.873534679412842,-4.08935546875,2.929687261581421,17
1734787500.9719667,-1.3936767578125,-0.1712646484375,0.3133544921875,-9.27734375,-4.45556640625,-4.82177734375,17
1734787501.0915067,-1.664306640625,-0.1981201171875,0.294677734375,5.615233898162842,-1.5869139432907104,-0.9155272841453552,17
1734787501.2110884,-1.2578125,-0.164306640625,0.27880859375,0.7934569716453552,-1.4038084745407104,-3.845214605331421,17
1734787501.3315146,-1.1116943359375,-0.142578125,0.2213134765625,9.27734375,2.25830078125,1.15966796875,17
1734787501.4511423,-0.875732421875,-0.1611328125,0.188720703125,8.30078125,1.7700194120407104,3.662109136581421,17
1734787501.571005,-0.6212158203125,-0.088134765625,0.145751953125,2.868652105331421,10.253905296325684,4.21142578125,17
1734787501.6947184,-0.5511474609375,-0.072509765625,0.0772705078125,-4.0283203125,39.36767578125,18.49365234375,17
1734787501.8109646,-0.8516845703125,-0.123046875,0.186767578125,9.765625,2.0751953125,4.0283203125,17
1734787501.9318292,-0.9981689453125,-0.117431640625,0.2689208984375,1.5869139432907104,9.33837890625,3.784179449081421,17
1734787502.052031,-0.915771484375,-0.1990966796875,0.2989501953125,5.554198741912842,-14.587401390075684,2.01416015625,17
1734787502.1710482,-0.958984375,-0.2218017578125,0.2384033203125,1.6479490995407104,-0.3662109076976776,4.57763671875,17
1734787502.2908213,-0.9368896484375,-0.2117919921875,0.244384765625,-1.4648436307907104,3.845214605331421,-1.03759765625,17
1734787502.913545,-0.9130859375,-0.228515625,0.2716064453125,-1.15966796875,-0.9155272841453552,0.6103515625,18
1734787502.9145463,-0.9278564453125,-0.212646484375,0.2630615234375,0.1831054538488388,4.33349609375,1.6479490995407104,18
1734787502.9145463,-0.926025390625,-0.2191162109375,0.2672119140625,0.3662109076976776,4.21142578125,1.8310545682907104,18
1734787502.9159434,-0.91015625,-0.2230224609375,0.2772216796875,-0.3662109076976776,2.746581792831421,1.7700194120407104,18
1734787502.9159434,-0.9093017578125,-0.227294921875,0.2677001953125,-1.7700194120407104,2.990722417831421,1.2817381620407104,18
1734787503.0108845,-0.933837890625,-0.218505859375,0.2529296875,-2.0751953125,1.220703125,1.5258787870407104,18
1734787503.1312997,-0.93408203125,-0.2242431640625,0.272705078125,-1.0986328125,0.1220703050494194,0.54931640625,18
1734787503.2507422,-0.919189453125,-0.2310791015625,0.2763671875,0.0,1.5258787870407104,0.6103515625,18
1734787503.3715374,-0.936767578125,-0.2208251953125,0.2724609375,-1.5258787870407104,-3.723144292831421,-1.3427733182907104,18
1734787503.49115,-0.9326171875,-0.223388671875,0.2764892578125,-2.624511480331421,-5.615233898162842,-1.7700194120407104,18
1734787503.6106412,-0.928466796875,-0.2271728515625,0.2628173828125,-3.540038824081421,-2.685546636581421,0.30517578125,18
1734787503.7310145,-0.8917236328125,-0.2105712890625,0.2423095703125,1.0986328125,-5.981444835662842,-1.15966796875,18
1734787503.8504448,-0.7940673828125,-0.182373046875,0.2041015625,3.295898199081421,-16.66259765625,-11.840819358825684,18
1734787503.9715345,-0.5457763671875,-0.1102294921875,0.08056640625,-2.3193359375,-14.465331077575684,-11.169432640075684,18
1734787504.0908592,-0.696533203125,-0.1322021484375,0.11376953125,3.479003667831421,-11.413573265075684,-11.047362327575684,18
1734787504.2111511,-0.9407958984375,-0.136962890625,0.1871337890625,-1.4648436307907104,-7.263183116912842,-7.019042491912842,18
1734787504.330688,-1.1153564453125,-0.19091796875,0.190673828125,-13.793944358825684,-1.8310545682907104,-3.234863042831421,18
1734787504.451396,-1.3765869140625,-0.19091796875,0.22802734375,-9.58251953125,1.2817381620407104,2.25830078125,18
1734787504.5713792,-1.780517578125,-0.14697265625,0.2298583984375,4.39453125,1.5258787870407104,0.9155272841453552,18
1734787504.6913202,-1.361572265625,-0.169677734375,0.250732421875,0.7934569716453552,1.5258787870407104,-2.3193359375,18
1734787504.81097,-1.1416015625,-0.190185546875,0.2061767578125,9.27734375,2.50244140625,-1.15966796875,18
1734787504.9309745,-0.8721923828125,-0.146240234375,0.16015625,8.11767578125,1.3427733182907104,5.065917491912842,18
1734787505.0516312,-0.576171875,-0.07177734375,0.094970703125,-0.3662109076976776,28.625486373901367,11.474608421325684,18
1734787505.171607,-0.4794921875,-0.1014404296875,0.03369140625,-0.9155272841453552,38.51318359375,27.282712936401367,18
1734787505.2916303,-1.0386962890625,-0.2049560546875,0.238037109375,13.549803733825684,-17.02880859375,-7.019042491912842,18
1734787505.4112253,-0.7967529296875,-0.2255859375,0.1907958984375,4.5166015625,16.54052734375,5.249022960662842,18
1734787505.5314949,-1.0355224609375,-0.2012939453125,0.22900390625,-5.187987804412842,-9.09423828125,2.13623046875,18
1734787505.6516042,-0.9102783203125,-0.2344970703125,0.248779296875,-1.7700194120407104,-0.4882812201976776,4.7607421875,18
1734787505.770967,-0.9525146484375,-0.2342529296875,0.227783203125,-2.746581792831421,-1.2817381620407104,0.1220703050494194,18
1734787505.8913295,-0.92529296875,-0.25390625,0.2481689453125,-1.6479490995407104,-1.5258787870407104,0.7324218153953552,18
1734787506.4274845,-0.92919921875,-0.2357177734375,0.2552490234375,-0.8544921278953552,4.33349609375,1.7700194120407104,19
1734787506.4284842,-0.9114990234375,-0.239501953125,0.25390625,-0.1220703050494194,2.624511480331421,1.5869139432907104,19
1734787506.4294844,-0.9283447265625,-0.23974609375,0.26171875,0.6713866591453552,2.685546636581421,1.03759765625,19
1734787506.4294844,-0.9212646484375,-0.2386474609375,0.2535400390625,-0.6713866591453552,0.1831054538488388,-0.30517578125,19
1734787506.4908218,-0.9193115234375,-0.2476806640625,0.2647705078125,-1.2817381620407104,1.0986328125,0.3662109076976776,19
1734787506.610758,-0.912109375,-0.2532958984375,0.26806640625,-2.13623046875,2.3193359375,2.197265625,19
1734787506.730386,-0.902587890625,-0.2431640625,0.263427734375,-0.6713866591453552,1.4648436307907104,1.6479490995407104,19
1734787506.8515258,-0.923828125,-0.25244140625,0.26904296875,-1.5869139432907104,-2.0751953125,-0.1220703050494194,19
1734787506.9716544,-0.88818359375,-0.2625732421875,0.2696533203125,-1.9531248807907104,-2.01416015625,0.0610351525247097,19
1734787507.0909305,-0.9073486328125,-0.2384033203125,0.2633056640625,-1.8920897245407104,-4.0283203125,-0.4882812201976776,19
1734787507.211291,-0.8621826171875,-0.2265625,0.24560546875,1.2817381620407104,-14.892577171325684,-6.896972179412842,19
1734787507.3310184,-0.727783203125,-0.17041015625,0.147705078125,2.563476324081421,-10.620116233825684,-10.192870140075684,19
1734787507.4504454,-0.588134765625,-0.074462890625,0.109130859375,5.554198741912842,-7.263183116912842,-5.065917491912842,19
1734787507.5711524,-0.768310546875,-0.252197265625,0.111572265625,-6.347655773162842,-8.056640625,-6.652831554412842,19
1734787507.6911128,-0.9727783203125,-0.1282958984375,0.1766357421875,-11.474608421325684,4.7607421875,-2.746581792831421,19
1734787507.8110578,-1.1048583984375,-0.1678466796875,0.177001953125,-8.30078125,5.615233898162842,-5.737304210662842,19
1734787507.9314826,-1.278564453125,-0.224365234375,0.23486328125,-12.573241233825684,12.878417015075684,3.234863042831421,19
1734787508.0514534,-1.53515625,-0.24658203125,0.3358154296875,1.7089842557907104,1.4648436307907104,4.45556640625,19
1734787508.171659,-1.4400634765625,-0.22314453125,0.3382568359375,0.6713866591453552,0.3662109076976776,-2.13623046875,19
1734787508.291424,-1.1435546875,-0.2222900390625,0.2430419921875,4.8828125,3.723144292831421,1.9531248807907104,19
1734787508.4106622,-0.96435546875,-0.1834716796875,0.2196044921875,7.019042491912842,2.0751953125,4.8828125,19
1734787508.531075,-0.718505859375,-0.13818359375,0.171630859375,8.85009765625,-1.8310545682907104,-2.50244140625,19
1734787508.6518335,-0.568603515625,-0.127685546875,0.114990234375,3.234863042831421,16.4794921875,14.221190452575684,19
1734787508.7712765,-0.590087890625,-0.1961669921875,0.154296875,3.967284917831421,24.414060592651367,16.05224609375,19
1734787508.8910615,-0.9114990234375,-0.3095703125,0.2369384765625,6.469726085662842,-29.479978561401367,-9.21630859375,19
1734787509.0116212,-0.8646240234375,-0.2005615234375,0.26171875,8.60595703125,5.676269054412842,0.1831054538488388,19
1734787509.1310003,-0.998291015625,-0.2464599609375,0.246826171875,0.6103515625,4.0283203125,1.7089842557907104,19
1734787509.251718,-0.8846435546875,-0.2471923828125,0.264404296875,-7.019042491912842,4.94384765625,3.112792730331421,19
1734787509.3711166,-0.9052734375,-0.2159423828125,0.2440185546875,4.39453125,3.845214605331421,4.2724609375,19
1734787509.9349627,-0.8963623046875,-0.284912109375,0.2664794921875,1.3427733182907104,-1.15966796875,3.356933355331421,20
1734787509.9361644,-0.9285888671875,-0.2437744140625,0.2469482421875,-6.713866710662842,0.0610351525247097,3.601073980331421,20
1734787509.9361644,-0.9296875,-0.261474609375,0.24267578125,-6.164550304412842,-0.1220703050494194,1.0986328125,20
1734787509.9371655,-0.9158935546875,-0.26708984375,0.2554931640625,-1.4648436307907104,0.7934569716453552,1.6479490995407104,20
1734787509.9371655,-0.91748046875,-0.2578125,0.2508544921875,-0.3662109076976776,4.8828125,0.7934569716453552,20
1734787510.030927,-0.9305419921875,-0.247314453125,0.255859375,-0.30517578125,0.9765624403953552,-0.6713866591453552,20
1734787510.1510544,-0.9129638671875,-0.2633056640625,0.266845703125,-0.4272460639476776,1.03759765625,-0.0610351525247097,20
1734787510.2704072,-0.9046630859375,-0.258056640625,0.26806640625,-0.0610351525247097,2.563476324081421,0.3662109076976776,20
1734787510.3913333,-0.9273681640625,-0.2547607421875,0.268310546875,-0.7324218153953552,-2.25830078125,-2.685546636581421,20
1734787510.5112486,-0.94482421875,-0.2435302734375,0.2388916015625,-0.30517578125,-1.5869139432907104,0.9155272841453552,20
1734787510.630918,-0.91064453125,-0.2503662109375,0.2467041015625,0.7324218153953552,-2.929687261581421,-1.7700194120407104,20
1734787510.7511327,-0.890625,-0.2513427734375,0.235107421875,0.4882812201976776,-11.840819358825684,-6.408690929412842,20
1734787510.8712053,-0.75048828125,-0.167724609375,0.1611328125,-1.7700194120407104,-18.9208984375,-14.343260765075684,20
1734787510.990369,-0.6298828125,-0.1136474609375,0.0528564453125,-0.4272460639476776,-10.009765625,-11.230467796325684,20
1734787511.1111124,-0.764404296875,-0.128662109375,0.16845703125,-2.44140625,-5.126952648162842,-6.713866710662842,20
1734787511.2306452,-0.93505859375,-0.119384765625,0.146728515625,-10.925292015075684,12.695311546325684,7.629394054412842,20
1734787511.3513322,-1.05078125,-0.164306640625,0.225830078125,-13.488768577575684,8.544921875,-0.2441406100988388,20
1734787511.4710035,-1.2724609375,-0.2735595703125,0.3338623046875,-1.15966796875,5.371093273162842,3.051757574081421,20
1734787511.5915868,-1.9091796875,-0.2774658203125,0.2862548828125,10.986327171325684,-12.878417015075684,-3.540038824081421,20
1734787511.7113078,-1.2830810546875,-0.2265625,0.315673828125,-6.713866710662842,-4.21142578125,-2.685546636581421,20
1734787511.8319268,-1.1641845703125,-0.219482421875,0.202392578125,-2.01416015625,2.563476324081421,0.0,20
1734787511.9512768,-0.8155517578125,-0.18603515625,0.17529296875,7.812499523162842,-12.023924827575684,0.30517578125,20
1734787512.0710547,-0.503662109375,-0.0867919921875,0.11669921875,5.0048828125,25.573728561401367,9.521484375,20
1734787512.1910021,-0.5067138671875,-0.0950927734375,0.0599365234375,2.563476324081421,43.457027435302734,20.874021530151367,20
1734787512.311418,-0.959716796875,-0.2916259765625,0.2626953125,23.498533248901367,-28.869626998901367,-14.892577171325684,20
1734787512.4318938,-0.8243408203125,-0.260986328125,0.2850341796875,-2.44140625,9.765625,3.723144292831421,20
1734787512.5514512,-1.01611328125,-0.232177734375,0.2691650390625,-0.2441406100988388,5.310058116912842,4.08935546875,20
1734787512.6712487,-0.89306640625,-0.219482421875,0.2669677734375,-3.417968511581421,-1.15966796875,3.295898199081421,20
1734787512.8514307,-0.9151611328125,-0.2623291015625,0.2705078125,-2.807616949081421,0.3662109076976776,1.5258787870407104,20
1734787512.9114902,-0.918212890625,-0.25341796875,0.291015625,-5.249022960662842,-0.1831054538488388,3.295898199081421,20
1734787513.4635882,-0.888671875,-0.2281494140625,0.2825927734375,-0.0610351525247097,1.2817381620407104,0.7324218153953552,21
1734787513.4635882,-0.90478515625,-0.253662109375,0.2860107421875,1.220703125,-1.15966796875,0.1831054538488388,21
1734787513.4650311,-0.9168701171875,-0.257568359375,0.2889404296875,-1.0986328125,-2.13623046875,-0.1220703050494194,21
1734787513.4650311,-0.922119140625,-0.2598876953125,0.2943115234375,-0.7934569716453552,1.9531248807907104,1.8920897245407104,21
1734787513.510593,-0.8988037109375,-0.2562255859375,0.2996826171875,-0.4882812201976776,2.13623046875,2.746581792831421,21
1734787513.6304243,-0.903076171875,-0.264404296875,0.29736328125,-1.0986328125,1.2817381620407104,0.7934569716453552,21
1734787513.7509449,-0.891845703125,-0.26416015625,0.2933349609375,-1.0986328125,0.4272460639476776,-0.9765624403953552,21
1734787513.871382,-0.902099609375,-0.265625,0.2957763671875,-3.173827886581421,0.7934569716453552,-1.4648436307907104,21
1734787513.9914882,-0.8983154296875,-0.267822265625,0.3089599609375,-0.2441406100988388,-0.7324218153953552,2.38037109375,21
1734787514.111308,-0.9088134765625,-0.2501220703125,0.2916259765625,0.7934569716453552,0.6103515625,2.3193359375,21
1734787514.231161,-0.89794921875,-0.257568359375,0.29345703125,0.4882812201976776,-3.112792730331421,-1.03759765625,21
1734787514.3505523,-0.889404296875,-0.2371826171875,0.265625,0.4882812201976776,-11.779784202575684,-7.324218273162842,21
1734787514.4708107,-0.657470703125,-0.1728515625,0.1776123046875,0.4882812201976776,-10.131834983825684,-10.803221702575684,21
1734787514.5908577,-0.5904541015625,-0.0826416015625,0.1162109375,-5.065917491912842,-22.460935592651367,-18.798828125,21
1734787514.7107208,-0.77978515625,-0.1275634765625,0.1212158203125,-9.09423828125,-19.71435546875,-24.536130905151367,21
1734787514.8313832,-0.94775390625,-0.0994873046875,0.1707763671875,-11.169432640075684,-18.73779296875,-16.357421875,21
1734787514.9513037,-1.2100830078125,-0.1531982421875,0.1513671875,-7.812499523162842,12.268065452575684,1.03759765625,21
1734787515.0707922,-1.4146728515625,-0.185546875,0.167236328125,-19.47021484375,-7.202147960662842,-3.906249761581421,21
1734787515.1914835,-1.6412353515625,-0.1082763671875,0.2271728515625,-9.09423828125,17.578125,13.000487327575684,21
1734787515.3114982,-1.2939453125,-0.119140625,0.241455078125,6.225585460662842,1.9531248807907104,3.967284917831421,21
1734787515.4312024,-1.107666015625,-0.08837890625,0.1754150390625,11.657713890075684,16.90673828125,9.46044921875,21
1734787515.5514216,-0.8409423828125,-0.1583251953125,0.1456298828125,9.765625,-2.13623046875,4.39453125,21
1734787515.6709948,-0.6258544921875,-0.1099853515625,0.1241455078125,4.45556640625,16.66259765625,13.183592796325684,21
1734787515.79143,-0.433349609375,-0.0745849609375,0.0799560546875,-2.807616949081421,28.381345748901367,17.7001953125,21
1734787515.9113445,-1.0849609375,-0.207275390625,0.2799072265625,14.404295921325684,-40.283199310302734,-21.728513717651367,21
1734787516.0309083,-0.7598876953125,-0.2818603515625,0.2608642578125,1.2817381620407104,20.812986373901367,6.591796398162842,21
1734787516.1510427,-1.0146484375,-0.1943359375,0.2296142578125,-1.4038084745407104,7.446288585662842,4.0283203125,21
1734787516.2717972,-0.8873291015625,-0.2191162109375,0.280029296875,-1.03759765625,-1.4038084745407104,2.3193359375,21
1734787516.3910296,-0.9619140625,-0.231689453125,0.2647705078125,-3.112792730331421,3.662109136581421,2.563476324081421,21
1734787516.9888234,-0.906494140625,-0.21630859375,0.278564453125,-2.868652105331421,1.4648436307907104,0.1831054538488388,22
1734787516.9898639,-0.88427734375,-0.2152099609375,0.2938232421875,1.7089842557907104,3.417968511581421,1.4038084745407104,22
1734787516.9913971,-0.9173583984375,-0.22412109375,0.2962646484375,-0.3662109076976776,-0.6713866591453552,0.1831054538488388,22
1734787516.9915946,-0.9156494140625,-0.234130859375,0.2935791015625,-0.6713866591453552,1.220703125,0.8544921278953552,22
1734787516.9926536,-0.9027099609375,-0.23779296875,0.2935791015625,-0.6103515625,0.1831054538488388,1.7700194120407104,22
1734787517.1106594,-0.9078369140625,-0.237548828125,0.288818359375,0.6713866591453552,0.3662109076976776,0.7324218153953552,22
1734787517.2310996,-0.892578125,-0.2396240234375,0.30126953125,-1.8920897245407104,-0.0610351525247097,1.2817381620407104,22
1734787517.3513093,-0.9010009765625,-0.2423095703125,0.2952880859375,-5.493163585662842,-3.112792730331421,1.7089842557907104,22
1734787517.4716446,-0.9151611328125,-0.2352294921875,0.293701171875,-3.417968511581421,-1.6479490995407104,1.8920897245407104,22
1734787517.5910652,-0.9169921875,-0.244873046875,0.2989501953125,-0.9765624403953552,-0.4882812201976776,3.356933355331421,22
1734787517.710557,-0.9122314453125,-0.22900390625,0.285888671875,0.6103515625,0.8544921278953552,1.6479490995407104,22
1734787517.8302026,-0.8499755859375,-0.24755859375,0.293701171875,-1.8920897245407104,-8.85009765625,-5.615233898162842,22
1734787517.9513042,-0.7559814453125,-0.196044921875,0.2127685546875,-0.6713866591453552,-10.375975608825684,-0.9155272841453552,22
1734787518.0704753,-0.539306640625,-0.097412109375,0.11572265625,1.9531248807907104,-2.13623046875,-8.30078125,22
1734787518.1906052,-0.6485595703125,-0.14404296875,0.1744384765625,-0.6713866591453552,-7.812499523162842,-14.038084983825684,22
1734787518.3107429,-0.9034423828125,-0.165283203125,0.2220458984375,-6.896972179412842,1.8920897245407104,-4.5166015625,22
1734787518.4306107,-1.072265625,-0.2294921875,0.2596435546875,-6.164550304412842,-16.17431640625,-1.0986328125,22
1734787518.5508664,-1.3302001953125,-0.255126953125,0.27978515625,-3.601073980331421,1.15966796875,-6.591796398162842,22
1734787518.670847,-1.6483154296875,-0.180908203125,0.2891845703125,5.676269054412842,5.859374523162842,6.591796398162842,22
1734787518.7914522,-1.3885498046875,-0.2379150390625,0.3419189453125,-2.624511480331421,-3.540038824081421,-3.051757574081421,22
1734787518.9114554,-1.0849609375,-0.2010498046875,0.2735595703125,-4.33349609375,-0.0610351525247097,1.6479490995407104,22
1734787519.0319612,-0.971923828125,-0.156005859375,0.2119140625,-3.540038824081421,6.713866710662842,3.479003667831421,22
1734787519.1511645,-0.666015625,-0.1279296875,0.1776123046875,4.0283203125,0.54931640625,-2.50244140625,22
1734787519.2714295,-0.5406494140625,-0.0703125,0.094482421875,5.859374523162842,21.301267623901367,8.9111328125,22
1734787519.3907363,-0.6700439453125,-0.1905517578125,0.203369140625,8.9111328125,18.4326171875,4.39453125,22
1734787519.5116153,-0.9873046875,-0.2235107421875,0.2965087890625,5.371093273162842,-17.822265625,-1.0986328125,22
1734787519.63094,-0.82958984375,-0.2767333984375,0.3072509765625,2.25830078125,2.50244140625,6.164550304412842,22
1734787519.751601,-0.9749755859375,-0.1943359375,0.2615966796875,-3.234863042831421,10.253905296325684,5.371093273162842,22
1734787519.8709395,-0.9290771484375,-0.2198486328125,0.2821044921875,-4.45556640625,1.0986328125,1.7089842557907104,22
1734787519.991342,-0.904052734375,-0.236328125,0.27685546875,-1.8920897245407104,3.845214605331421,3.540038824081421,22
1734787520.4987876,-0.9107666015625,-0.218994140625,0.2855224609375,-0.6713866591453552,1.4648436307907104,0.6713866591453552,23
1734787520.4997878,-0.936279296875,-0.2283935546875,0.2880859375,-0.30517578125,1.8920897245407104,-1.4648436307907104,23
1734787520.4997878,-0.9102783203125,-0.231201171875,0.28271484375,0.6713866591453552,3.051757574081421,0.6713866591453552,23
1734787520.500787,-0.945068359375,-0.224609375,0.28759765625,-1.15966796875,0.54931640625,0.9765624403953552,23
1734787520.5908206,-0.9169921875,-0.2283935546875,0.2984619140625,-0.4882812201976776,2.746581792831421,0.6713866591453552,23
1734787520.7110307,-0.9246826171875,-0.22900390625,0.297607421875,-1.9531248807907104,2.44140625,0.0,23
1734787520.8301823,-0.9398193359375,-0.22705078125,0.2938232421875,-0.1831054538488388,-2.807616949081421,1.220703125,23
1734787520.9512308,-0.9337158203125,-0.234130859375,0.2906494140625,1.4648436307907104,-0.9155272841453552,1.03759765625,23
1734787521.071498,-0.9163818359375,-0.240234375,0.29833984375,-0.6713866591453552,0.0610351525247097,-0.1220703050494194,23
1734787521.1911387,-0.9083251953125,-0.2452392578125,0.2978515625,-0.0610351525247097,1.220703125,1.4648436307907104,23
1734787521.370926,-0.8907470703125,-0.2364501953125,0.2796630859375,-2.624511480331421,-6.042479991912842,-1.0986328125,23
1734787521.430784,-0.840087890625,-0.193603515625,0.24072265625,-1.7089842557907104,-14.221190452575684,-11.169432640075684,23
1734787521.5506568,-0.5770263671875,-0.10107421875,0.166748046875,-0.54931640625,-13.122557640075684,-12.878417015075684,23
1734787521.6704485,-0.7554931640625,-0.1361083984375,0.124267578125,-2.38037109375,-10.314940452575684,-9.8876953125,23
1734787521.790748,-0.84912109375,-0.0968017578125,0.187255859375,-4.0283203125,-24.108884811401367,-17.63916015625,23
1734787521.911131,-0.979248046875,-0.189697265625,0.1673583984375,-3.540038824081421,-7.141112804412842,-10.253905296325684,23
1734787522.0308387,-1.1859130859375,-0.1375732421875,0.2491455078125,-2.868652105331421,4.150390625,-2.868652105331421,23
1734787522.1509132,-1.47021484375,-0.1990966796875,0.3135986328125,-28.381345748901367,-1.15966796875,-14.892577171325684,23
1734787522.2704883,-1.616943359375,-0.0682373046875,0.304931640625,0.4882812201976776,6.103515148162842,5.554198741912842,23
1734787522.391818,-1.218505859375,-0.109375,0.3033447265625,8.056640625,-1.3427733182907104,2.50244140625,23
1734787522.5108142,-1.027099609375,-0.10888671875,0.2327880859375,10.864256858825684,11.901854515075684,5.187987804412842,23
1734787522.6307325,-0.816162109375,-0.113525390625,0.2152099609375,6.530761241912842,-2.13623046875,5.615233898162842,23
1734787522.750914,-0.5556640625,-0.0758056640625,0.1497802734375,1.8920897245407104,22.644041061401367,15.563963890075684,23
1734787522.8716564,-0.4034423828125,-0.1158447265625,0.099853515625,-1.4038084745407104,32.71484375,22.888181686401367,23
1734787522.991925,-1.138916015625,-0.1754150390625,0.2314453125,13.610838890075684,-41.687007904052734,-7.141112804412842,23
1734787523.1116223,-0.8763427734375,-0.205810546875,0.240966796875,0.7324218153953552,1.8310545682907104,-4.39453125,23
1734787523.2308803,-0.9903564453125,-0.1749267578125,0.2662353515625,-1.2817381620407104,6.835937023162842,1.5258787870407104,23
1734787523.3512194,-0.906494140625,-0.163330078125,0.2681884765625,-3.356933355331421,0.0,-0.8544921278953552,23
1734787524.0024285,-0.953857421875,-0.165283203125,0.26904296875,-5.920409679412842,0.4272460639476776,-0.7324218153953552,24
1734787524.003294,-0.976318359375,-0.160888671875,0.25,-0.8544921278953552,0.54931640625,-1.7089842557907104,24
1734787524.0037935,-0.9681396484375,-0.1826171875,0.296142578125,-7.019042491912842,2.44140625,2.929687261581421,24
1734787524.0037935,-0.9161376953125,-0.1427001953125,0.2529296875,-1.3427733182907104,8.72802734375,1.03759765625,24
1734787524.0048,-0.947998046875,-0.1693115234375,0.232666015625,4.94384765625,2.38037109375,1.9531248807907104,24
1734787524.010802,-0.958251953125,-0.189697265625,0.2891845703125,3.234863042831421,0.0,4.33349609375,24
1734787524.1313803,-0.9322509765625,-0.157958984375,0.28271484375,-0.30517578125,1.0986328125,3.479003667831421,24
1734787524.251023,-0.9405517578125,-0.170654296875,0.2691650390625,0.9155272841453552,-3.173827886581421,0.0,24
1734787524.3706906,-0.930908203125,-0.19287109375,0.2772216796875,1.5869139432907104,-3.784179449081421,-1.7700194120407104,24
1734787524.4906256,-0.919189453125,-0.194091796875,0.2847900390625,2.197265625,-2.44140625,-1.7089842557907104,24
1734787524.610982,-0.9403076171875,-0.1866455078125,0.2510986328125,2.0751953125,-2.13623046875,-0.9155272841453552,24
1734787524.7315273,-0.8699951171875,-0.176025390625,0.22998046875,2.563476324081421,-6.958007335662842,-6.469726085662842,24
1734787524.850523,-0.71240234375,-0.1260986328125,0.162841796875,-2.990722417831421,-3.417968511581421,-5.676269054412842,24
1734787524.970775,-0.6160888671875,-0.0660400390625,0.0694580078125,-2.3193359375,-6.835937023162842,-10.375975608825684,24
1734787525.0902655,-0.87646484375,-0.1201171875,0.1617431640625,-1.220703125,-20.935056686401367,-14.099120140075684,24
1734787525.2108035,-0.9725341796875,-0.11962890625,0.19189453125,-6.286620616912842,-7.202147960662842,-5.737304210662842,24
1734787525.3302941,-1.0428466796875,-0.1463623046875,0.209716796875,-2.3193359375,0.1831054538488388,-1.5258787870407104,24
1734787525.4507926,-1.2177734375,-0.0875244140625,0.2962646484375,-8.60595703125,-5.615233898162842,-2.990722417831421,24
1734787525.571291,-1.6910400390625,-0.092041015625,0.276123046875,2.685546636581421,5.0048828125,0.9765624403953552,24
1734787525.690808,-1.386474609375,-0.14111328125,0.2562255859375,0.1831054538488388,-6.347655773162842,2.929687261581421,24
1734787525.8111007,-1.1236572265625,-0.2135009765625,0.25439453125,-4.21142578125,1.15966796875,13.732909202575684,24
1734787525.9313304,-0.9208984375,-0.1304931640625,0.198974609375,5.249022960662842,2.197265625,14.892577171325684,24
1734787526.0507915,-0.7789306640625,-0.1373291015625,0.16845703125,6.225585460662842,9.033203125,13.122557640075684,24
1734787526.1713219,-0.590576171875,-0.116943359375,0.14111328125,-5.981444835662842,31.738279342651367,14.343260765075684,24
1734787526.291055,-0.5963134765625,-0.1558837890625,0.184326171875,-4.150390625,32.8369140625,11.352538108825684,24
1734787526.410744,-0.8721923828125,-0.273193359375,0.310791015625,1.3427733182907104,-20.996091842651367,-9.94873046875,24
1734787526.5307198,-0.73974609375,-0.2437744140625,0.2733154296875,-4.150390625,6.835937023162842,2.44140625,24
1734787526.6507828,-1.0269775390625,-0.199462890625,0.256103515625,-2.868652105331421,4.150390625,4.7607421875,24
1734787526.7708845,-0.9239501953125,-0.1676025390625,0.2900390625,5.554198741912842,2.746581792831421,0.9765624403953552,24
1734787526.8911262,-0.9173583984375,-0.2308349609375,0.286376953125,6.347655773162842,5.371093273162842,-3.295898199081421,24
1734787527.0111647,-0.917724609375,-0.2222900390625,0.301513671875,1.6479490995407104,0.30517578125,-2.25830078125,24
1734787527.5285802,-0.936279296875,-0.216552734375,0.2967529296875,-1.9531248807907104,1.4648436307907104,-1.3427733182907104,25
1734787527.5285802,-0.9024658203125,-0.2122802734375,0.298583984375,-1.3427733182907104,0.4882812201976776,-0.7934569716453552,25
1734787527.529683,-0.9447021484375,-0.191162109375,0.299560546875,0.9155272841453552,2.3193359375,0.4272460639476776,25
1734787527.529683,-0.9193115234375,-0.2098388671875,0.3033447265625,-0.4882812201976776,-0.30517578125,0.4882812201976776,25
1734787527.6102502,-0.9173583984375,-0.20947265625,0.297119140625,-3.417968511581421,-4.21142578125,1.0986328125,25
1734787527.7310193,-0.9193115234375,-0.2059326171875,0.302490234375,-5.920409679412842,0.0,2.50244140625,25
1734787527.850776,-0.9600830078125,-0.1947021484375,0.3043212890625,-3.417968511581421,0.6103515625,2.50244140625,25
1734787527.97126,-0.9346923828125,-0.1976318359375,0.2845458984375,0.1220703050494194,1.2817381620407104,0.0610351525247097,25
1734787528.0909312,-0.899658203125,-0.2156982421875,0.2808837890625,2.50244140625,-7.995604991912842,-4.21142578125,25
1734787528.2108626,-0.9266357421875,-0.2139892578125,0.270751953125,-0.1831054538488388,-13.732909202575684,-7.080077648162842,25
1734787528.3309634,-0.8790283203125,-0.1422119140625,0.1995849609375,2.197265625,-17.27294921875,-10.314940452575684,25
1734787528.4501731,-0.6263427734375,-0.10693359375,0.14990234375,2.929687261581421,-21.240232467651367,-15.686034202575684,25
1734787528.5709093,-0.70068359375,-0.097900390625,0.0850830078125,-2.01416015625,-23.620603561401367,-21.667478561401367,25
1734787528.6905124,-0.9366455078125,-0.0262451171875,0.1390380859375,1.3427733182907104,-23.803709030151367,-15.258788108825684,25
1734787528.810651,-1.0242919921875,-0.0484619140625,0.1776123046875,0.8544921278953552,5.310058116912842,-6.958007335662842,25
1734787528.9304726,-1.1385498046875,-0.0361328125,0.248291015625,0.1220703050494194,3.967284917831421,9.3994140625,25
1734787529.051696,-1.4407958984375,-0.2119140625,0.2587890625,5.493163585662842,5.615233898162842,0.8544921278953552,25
1734787529.1717167,-1.5631103515625,-0.13427734375,0.2381591796875,11.047362327575684,6.225585460662842,6.958007335662842,25
