Timestamp,Accel X,Accel Y,Accel Z,Gyro X,Gyro Y,Gyro Z,Start Flag
1734787614.31381,0.8707275390625,-0.259521484375,0.4022216796875,-0.9765624403953552,-3.540038824081421,3.112792730331421,0
1734787614.828137,0.8756103515625,-0.263916015625,0.39599609375,0.1831054538488388,0.6103515625,4.2724609375,0
1734787614.829137,0.9180908203125,-0.256103515625,0.40673828125,3.295898199081421,-5.615233898162842,4.7607421875,0
1734787614.829137,0.889892578125,-0.2435302734375,0.39990234375,-3.234863042831421,-0.9155272841453552,1.7700194120407104,0
1734787614.8301368,0.87109375,-0.2470703125,0.400390625,-2.0751953125,-0.9765624403953552,0.3662109076976776,0
1734787614.912955,0.8726806640625,-0.25439453125,0.3909912109375,-3.540038824081421,2.44140625,1.2817381620407104,0
1734787615.032907,0.852783203125,-0.23974609375,0.4161376953125,1.4648436307907104,-0.9765624403953552,-1.7700194120407104,0
1734787615.1532555,0.867431640625,-0.2120361328125,0.4005126953125,8.72802734375,0.54931640625,0.7934569716453552,0
1734787615.2728608,0.8846435546875,-0.2650146484375,0.419921875,4.33349609375,3.723144292831421,0.0610351525247097,0
1734787615.3933046,0.9053955078125,-0.27197265625,0.4031982421875,2.0751953125,-10.986327171325684,-5.0048828125,0
1734787615.5726519,0.852783203125,-0.2559814453125,0.4151611328125,-0.1831054538488388,-4.94384765625,-3.356933355331421,0
1734787615.632898,0.8773193359375,-0.2855224609375,0.4364013671875,-1.7089842557907104,-6.652831554412842,-2.624511480331421,0
1734787615.7524524,0.8519287109375,-0.293212890625,0.4061279296875,-1.03759765625,-5.249022960662842,-6.103515148162842,0
1734787615.873048,0.7830810546875,-0.2437744140625,0.37890625,-4.33349609375,6.286620616912842,-0.7324218153953552,0
1734787615.9930737,0.4774169921875,-0.1671142578125,0.2955322265625,-1.6479490995407104,16.6015625,9.33837890625,0
1734787616.112825,0.7464599609375,-0.155517578125,0.239990234375,8.544921875,26.367185592651367,23.071287155151367,0
1734787616.2926648,0.753662109375,-0.0888671875,0.306396484375,15.747069358825684,11.657713890075684,23.071287155151367,0
1734787616.3532236,0.9879150390625,-0.2227783203125,0.3153076171875,15.319823265075684,-0.8544921278953552,22.521970748901367,0
1734787616.4733493,1.0594482421875,-0.12548828125,0.425048828125,4.69970703125,8.1787109375,16.05224609375,0
1734787616.5931306,1.172119140625,-0.2244873046875,0.5072021484375,-18.5546875,-0.6103515625,-15.563963890075684,0
1734787616.7134142,1.6878662109375,-0.234619140625,0.6844482421875,-2.197265625,-53.710933685302734,23.559568405151367,0
1734787616.8334835,0.9610595703125,-0.1629638671875,0.742431640625,-4.150390625,27.404783248901367,-4.638671875,0
1734787616.9533293,1.0577392578125,-0.107666015625,0.5738525390625,-9.3994140625,1.15966796875,6.835937023162842,0
1734787617.0732508,0.7734375,-0.083740234375,0.4959716796875,-4.150390625,27.038572311401367,8.36181640625,0
1734787617.1929376,0.4888916015625,-0.0430908203125,0.35595703125,-7.568358898162842,46.264644622802734,8.30078125,0
1734787617.3130505,0.66650390625,-0.0030517578125,0.2864990234375,-2.197265625,-10.192870140075684,-15.930174827575684,0
1734787617.4326732,0.70556640625,-0.1072998046875,0.4085693359375,-1.8310545682907104,3.417968511581421,-12.756346702575684,0
1734787617.5532308,0.8792724609375,-0.1976318359375,0.44384765625,13.000487327575684,29.541013717651367,1.9531248807907104,0
1734787617.672842,0.66943359375,-0.15087890625,0.4757080078125,3.417968511581421,-1.3427733182907104,-5.676269054412842,0
1734787617.7938743,0.8646240234375,-0.1788330078125,0.387939453125,-3.356933355331421,-15.808104515075684,-7.080077648162842,0
1734787618.3450367,0.87255859375,-0.1834716796875,0.4339599609375,2.25830078125,-14.831542015075684,2.685546636581421,1
1734787618.346047,0.88671875,-0.15771484375,0.476318359375,4.21142578125,-3.784179449081421,1.4038084745407104,1
1734787618.3470469,0.8514404296875,-0.170166015625,0.47314453125,3.356933355331421,-2.38037109375,-0.0610351525247097,1
1734787618.3470469,0.8394775390625,-0.18017578125,0.4991455078125,0.7934569716453552,0.30517578125,0.3662109076976776,1
1734787618.393054,0.870849609375,-0.148681640625,0.478515625,-5.432128429412842,-4.69970703125,-2.929687261581421,1
1734787618.512781,0.8670654296875,-0.1680908203125,0.4766845703125,1.03759765625,0.6103515625,0.7324218153953552,1
1734787618.693233,0.83642578125,-0.1849365234375,0.4954833984375,0.0,-3.051757574081421,-3.906249761581421,1
1734787618.7530472,0.85302734375,-0.19921875,0.4852294921875,-0.6103515625,-3.295898199081421,-5.371093273162842,1
1734787618.8733335,0.8477783203125,-0.169921875,0.4752197265625,-9.82666015625,-10.131834983825684,-6.225585460662842,1
1734787618.9924986,0.8394775390625,-0.1754150390625,0.4991455078125,-2.01416015625,4.69970703125,-0.7324218153953552,1
1734787619.1720726,0.86083984375,-0.20751953125,0.48583984375,4.94384765625,5.187987804412842,-0.1831054538488388,1
1734787619.2321708,0.802734375,-0.1708984375,0.457763671875,-0.9765624403953552,5.126952648162842,4.21142578125,1
1734787619.3523288,0.6644287109375,-0.1156005859375,0.336181640625,-2.563476324081421,20.324705123901367,22.583005905151367,1
1734787619.4726593,0.373046875,-0.1353759765625,0.2532958984375,-18.9208984375,6.469726085662842,8.97216796875,1
1734787619.5924964,0.93505859375,-0.076416015625,0.1810302734375,1.5258787870407104,12.695311546325684,19.10400390625,1
1734787619.7122798,0.9683837890625,-0.073486328125,0.369140625,6.286620616912842,5.432128429412842,22.094724655151367,1
1734787619.8324807,1.017822265625,-0.0908203125,0.4512939453125,-4.0283203125,-4.2724609375,-1.5258787870407104,1
1734787619.9525993,1.13671875,-0.1466064453125,0.48486328125,-13.061522483825684,-4.0283203125,-12.023924827575684,1
1734787620.073371,1.7333984375,-0.0736083984375,0.6566162109375,-3.417968511581421,10.498045921325684,3.112792730331421,1
1734787620.193201,1.2701416015625,-0.08251953125,0.5977783203125,-4.150390625,-24.963376998901367,-7.873534679412842,1
1734787620.312755,1.1416015625,-0.0667724609375,0.4935302734375,1.3427733182907104,-1.15966796875,0.4882812201976776,1
1734787620.4330845,0.876953125,-0.03564453125,0.4200439453125,2.25830078125,-6.835937023162842,0.8544921278953552,1
1734787620.4933968,0.60986328125,-0.0439453125,0.317626953125,1.7089842557907104,-3.295898199081421,4.21142578125,1
1734787620.6135502,0.430419921875,-0.005859375,0.1834716796875,-0.0610351525247097,-35.46142578125,-28.076169967651367,1
1734787620.733059,0.672119140625,-0.0804443359375,0.4609375,5.737304210662842,-5.126952648162842,-5.310058116912842,1
1734787620.8532226,0.9830322265625,-0.22265625,0.491943359375,5.981444835662842,20.324705123901367,2.197265625,1
1734787620.9732523,0.73046875,-0.0892333984375,0.5145263671875,8.056640625,0.9155272841453552,3.051757574081421,1
1734787621.0935674,0.90087890625,-0.15673828125,0.4952392578125,3.479003667831421,-12.756346702575684,-5.859374523162842,1
1734787621.2137692,0.8262939453125,-0.146728515625,0.466552734375,-1.5258787870407104,2.3193359375,-2.44140625,1
1734787621.333143,0.8956298828125,-0.119140625,0.4964599609375,-0.3662109076976776,2.13623046875,-0.1220703050494194,1
1734787621.8773866,0.857421875,-0.13720703125,0.4908447265625,2.01416015625,0.1831054538488388,0.30517578125,2
1734787621.8778872,0.86669921875,-0.14013671875,0.49072265625,-2.44140625,0.1831054538488388,0.9155272841453552,2
1734787621.8789005,0.8382568359375,-0.1185302734375,0.502197265625,-3.112792730331421,-1.7700194120407104,0.0,2
1734787621.8799744,0.87109375,-0.14111328125,0.507568359375,-1.5869139432907104,2.197265625,0.30517578125,2
1734787621.932471,0.7825927734375,-0.1431884765625,0.49853515625,-6.652831554412842,5.187987804412842,-0.4272460639476776,2
1734787622.1129093,0.8758544921875,-0.1319580078125,0.490966796875,-1.8920897245407104,4.21142578125,0.3662109076976776,2
1734787622.17281,0.8619384765625,-0.124755859375,0.502197265625,2.563476324081421,-11.230467796325684,-3.234863042831421,2
1734787622.2927966,0.8360595703125,-0.132080078125,0.491943359375,4.08935546875,-3.845214605331421,0.7324218153953552,2
1734787622.4138622,0.83984375,-0.1328125,0.5009765625,0.2441406100988388,1.5258787870407104,1.6479490995407104,2
1734787622.5925303,0.8292236328125,-0.129638671875,0.484619140625,-3.356933355331421,4.39453125,4.69970703125,2
1734787622.6522017,0.65625,-0.0904541015625,0.389404296875,-7.385253429412842,9.58251953125,13.305663108825684,2
1734787622.772455,0.52001953125,-0.023681640625,0.28759765625,0.0610351525247097,8.23974609375,19.53125,2
1734787622.8929338,0.6380615234375,-0.0465087890625,0.307861328125,-2.01416015625,14.526366233825684,23.986814498901367,2
1734787623.0127554,0.993408203125,-0.05712890625,0.4197998046875,-10.192870140075684,11.901854515075684,16.2353515625,2
1734787623.132923,0.982421875,0.0888671875,0.39892578125,-6.958007335662842,20.568845748901367,7.507323741912842,2
1734787623.2529728,1.15673828125,0.0523681640625,0.4339599609375,-6.530761241912842,-1.8920897245407104,-3.601073980331421,2
1734787623.372426,1.4407958984375,0.03955078125,0.5352783203125,-7.141112804412842,1.3427733182907104,-15.686034202575684,2
1734787623.4923325,1.6282958984375,0.0281982421875,0.5889892578125,12.878417015075684,-0.6713866591453552,-8.6669921875,2
1734787623.6126208,1.0911865234375,-0.038818359375,0.4891357421875,3.051757574081421,-7.629394054412842,-1.6479490995407104,2
1734787623.7332819,1.0472412109375,-0.05126953125,0.440673828125,0.54931640625,-10.253905296325684,-2.44140625,2
1734787623.8531735,0.706787109375,-0.0303955078125,0.2666015625,-1.8310545682907104,20.935056686401367,14.892577171325684,2
1734787623.972942,0.545166015625,-0.0006103515625,0.171630859375,-10.314940452575684,19.775390625,9.33837890625,2
1734787624.0936832,0.536376953125,-0.0242919921875,0.1431884765625,-5.249022960662842,-36.56005859375,-39.36767578125,2
1734787624.2128794,1.2255859375,0.091064453125,0.158935546875,14.038084983825684,-5.737304210662842,-4.638671875,2
1734787624.333073,0.7584228515625,-0.1314697265625,0.305908203125,3.601073980331421,15.075682640075684,5.0048828125,2
1734787624.4524536,1.0238037109375,-0.019287109375,0.3399658203125,7.080077648162842,-11.352538108825684,-3.051757574081421,2
1734787624.572903,0.8828125,-0.09912109375,0.332275390625,-0.3662109076976776,8.1787109375,-1.5258787870407104,2
1734787624.6937766,0.89599609375,-0.107177734375,0.3258056640625,-4.33349609375,7.080077648162842,-3.051757574081421,2
1734787624.813357,0.9691162109375,-0.0535888671875,0.3455810546875,-7.507323741912842,-0.30517578125,-3.845214605331421,2
1734787625.4065847,0.9615478515625,-0.0860595703125,0.3319091796875,-4.7607421875,10.864256858825684,-2.25830078125,3
1734787625.4074838,0.9351806640625,-0.0699462890625,0.3116455078125,-2.01416015625,-3.662109136581421,-2.746581792831421,3
1734787625.4080892,0.9464111328125,-0.0958251953125,0.314208984375,0.30517578125,1.9531248807907104,1.4038084745407104,3
1734787625.4080892,0.9310302734375,-0.087890625,0.3109130859375,-1.4648436307907104,-2.563476324081421,-1.03759765625,3
1734787625.4121666,0.9295654296875,-0.068603515625,0.322265625,-1.5258787870407104,-1.220703125,-0.6713866591453552,3
1734787625.5321372,0.9818115234375,-0.0948486328125,0.3511962890625,-7.141112804412842,-1.6479490995407104,-0.1831054538488388,3
1734787625.6527836,0.9151611328125,-0.0721435546875,0.314453125,-1.4648436307907104,-8.1787109375,-2.0751953125,3
1734787625.7730289,0.9112548828125,-0.085693359375,0.3189697265625,4.57763671875,0.3662109076976776,-1.220703125,3
1734787625.8932369,0.9315185546875,-0.083984375,0.3502197265625,1.6479490995407104,2.44140625,-0.54931640625,3
1734787626.0128028,0.929443359375,-0.0908203125,0.35400390625,0.7324218153953552,-0.30517578125,-0.1220703050494194,3
1734787626.1330721,0.9044189453125,-0.070068359375,0.32177734375,4.2724609375,0.2441406100988388,5.981444835662842,3
1734787626.2520666,0.7623291015625,-0.0537109375,0.2275390625,3.112792730331421,22.338865280151367,24.353025436401367,3
1734787626.3723204,0.5716552734375,0.0335693359375,0.1597900390625,-5.859374523162842,16.4794921875,29.174802780151367,3
1734787626.4920359,0.734375,0.0218505859375,0.169189453125,-3.784179449081421,4.638671875,25.268552780151367,3
1734787626.6126935,0.9305419921875,0.0670166015625,0.2606201171875,3.906249761581421,-18.1884765625,7.446288585662842,3
1734787626.732522,1.1246337890625,0.1268310546875,0.297119140625,3.356933355331421,-1.220703125,-1.5869139432907104,3
1734787626.8519263,1.3052978515625,0.1180419921875,0.41455078125,1.03759765625,24.353025436401367,-2.746581792831421,3
1734787626.9730184,1.910888671875,0.12451171875,0.5277099609375,-10.498045921325684,-22.766111373901367,-0.7934569716453552,3
1734787627.092622,1.29736328125,0.155517578125,0.435302734375,0.7324218153953552,-22.399900436401367,-1.7700194120407104,3
1734787627.213202,1.1427001953125,0.0980224609375,0.3944091796875,14.038084983825684,21.911619186401367,16.4794921875,3
1734787627.333241,0.9547119140625,0.067138671875,0.3187255859375,-9.21630859375,-0.9155272841453552,2.929687261581421,3
1734787627.4535046,0.5736083984375,0.064208984375,0.169677734375,-3.967284917831421,-5.310058116912842,-7.629394054412842,3
1734787627.5729122,0.5224609375,0.1055908203125,0.1661376953125,1.4648436307907104,-39.4287109375,-34.66796875,3
1734787627.6930377,0.8095703125,0.1083984375,0.3392333984375,13.916014671325684,-6.225585460662842,-0.7934569716453552,3
1734787627.813482,0.9014892578125,0.00634765625,0.3875732421875,-1.4648436307907104,-14.038084983825684,-7.568358898162842,3
1734787627.9335191,0.952880859375,-0.026611328125,0.3924560546875,6.225585460662842,3.540038824081421,4.638671875,3
1734787628.052941,0.872314453125,-0.0107421875,0.3912353515625,5.737304210662842,1.5869139432907104,0.4272460639476776,3
1734787628.1730847,0.973388671875,-0.00830078125,0.4140625,-2.929687261581421,3.112792730331421,1.03759765625,3
1734787628.292656,0.9041748046875,-0.0135498046875,0.40283203125,-1.4648436307907104,1.7089842557907104,-4.7607421875,3
1734787628.907093,0.8538818359375,-0.0126953125,0.3797607421875,-6.164550304412842,8.48388671875,-0.0610351525247097,4
1734787628.9080925,0.917236328125,0.001953125,0.3974609375,-3.784179449081421,-2.624511480331421,-0.0610351525247097,4
1734787628.9080925,0.9029541015625,-0.00146484375,0.3641357421875,3.051757574081421,-3.112792730331421,0.54931640625,4
1734787628.9090931,0.9111328125,-0.0167236328125,0.3912353515625,1.2817381620407104,3.723144292831421,2.38037109375,4
1734787628.9090931,0.9351806640625,-0.0037841796875,0.3895263671875,0.4882812201976776,5.249022960662842,0.8544921278953552,4
1734787629.0125902,0.967041015625,0.0098876953125,0.38671875,8.11767578125,2.197265625,6.286620616912842,4
1734787629.13274,0.8525390625,-0.051513671875,0.3551025390625,15.991209983825684,-11.779784202575684,1.8310545682907104,4
1734787629.2528234,0.9039306640625,0.044189453125,0.361083984375,6.042479991912842,31.799314498901367,4.7607421875,4
1734787629.3725626,1.0701904296875,0.00390625,0.3563232421875,8.7890625,6.225585460662842,14.160155296325684,4
1734787629.493165,0.9180908203125,0.026611328125,0.33740234375,-0.30517578125,0.2441406100988388,8.36181640625,4
1734787629.6129522,0.8758544921875,-0.0244140625,0.37109375,-4.82177734375,8.544921875,-4.0283203125,4
1734787629.7328312,0.853271484375,0.0677490234375,0.347900390625,-10.375975608825684,11.718749046325684,-2.563476324081421,4
1734787629.8519135,0.6795654296875,0.0914306640625,0.233154296875,-1.6479490995407104,25.451658248901367,8.9111328125,4
1734787629.972199,0.5709228515625,-0.0682373046875,0.1578369140625,5.249022960662842,2.25830078125,-9.1552734375,4
1734787630.092114,0.8724365234375,0.02294921875,0.03125,-3.234863042831421,-10.437010765075684,4.69970703125,4
1734787630.212071,0.861328125,0.0804443359375,0.20703125,-2.807616949081421,12.878417015075684,6.225585460662842,4
1734787630.332034,1.0137939453125,0.0546875,0.364501953125,-10.742186546325684,-1.3427733182907104,7.019042491912842,4
1734787630.4532747,1.1199951171875,-0.035400390625,0.246337890625,3.540038824081421,12.695311546325684,6.774901866912842,4
1734787630.5729926,1.6376953125,0.130859375,0.388671875,-4.39453125,14.465331077575684,15.991209983825684,4
1734787630.692669,1.473388671875,0.1478271484375,0.3638916015625,2.563476324081421,-4.2724609375,-4.5166015625,4
1734787630.8134248,1.276123046875,0.13818359375,0.223388671875,1.2817381620407104,5.798339366912842,4.0283203125,4
1734787630.9333577,0.9527587890625,0.06640625,0.16943359375,-11.657713890075684,-2.807616949081421,4.08935546875,4
1734787631.0528314,0.627197265625,0.087646484375,0.1549072265625,-15.441893577575684,15.136717796325684,2.868652105331421,4
1734787631.1725593,0.638916015625,0.0328369140625,0.0626220703125,-18.9208984375,-3.601073980331421,-36.865234375,4
1734787631.2936633,0.7567138671875,0.11328125,0.162109375,21.911619186401367,-29.724119186401367,-40.405269622802734,4
1734787631.413095,0.998046875,-0.0172119140625,0.2391357421875,11.169432640075684,5.310058116912842,0.54931640625,4
1734787631.5335622,0.9088134765625,-0.08544921875,0.3026123046875,0.7934569716453552,19.8974609375,9.1552734375,4
1734787631.6527193,0.911376953125,-0.0345458984375,0.26611328125,7.019042491912842,-5.981444835662842,1.3427733182907104,4
1734787631.7730806,0.998779296875,-0.0577392578125,0.25634765625,2.01416015625,0.7324218153953552,7.629394054412842,4
1734787631.893253,0.9656982421875,-0.025634765625,0.2606201171875,0.6103515625,-2.563476324081421,3.601073980331421,4
1734787632.4038563,0.96630859375,-0.0374755859375,0.2755126953125,3.967284917831421,-2.685546636581421,-1.5869139432907104,5
1734787632.4047809,0.9425048828125,-0.0450439453125,0.269775390625,-2.807616949081421,-3.112792730331421,0.6103515625,5
1734787632.4052823,0.9500732421875,-0.0157470703125,0.2755126953125,-3.723144292831421,-0.4272460639476776,-0.6713866591453552,5
1734787632.4062965,0.9466552734375,-0.036865234375,0.2843017578125,-1.220703125,-0.3662109076976776,0.6713866591453552,5
1734787632.4928105,0.9676513671875,-0.0325927734375,0.27734375,-1.8310545682907104,2.990722417831421,-1.3427733182907104,5
1734787632.6127694,0.98193359375,-0.0040283203125,0.2725830078125,-3.051757574081421,-0.6103515625,-1.220703125,5
1734787632.732249,0.951171875,-0.0281982421875,0.281005859375,-0.6103515625,-0.6713866591453552,0.2441406100988388,5
1734787632.852844,0.9771728515625,-0.0064697265625,0.2928466796875,4.150390625,-3.723144292831421,-0.2441406100988388,5
1734787632.973087,0.9537353515625,-0.0123291015625,0.2928466796875,6.774901866912842,-6.469726085662842,-1.0986328125,5
1734787633.0932124,0.9686279296875,-0.052001953125,0.3165283203125,5.0048828125,-0.4272460639476776,4.57763671875,5
1734787633.2125673,0.9197998046875,-0.052001953125,0.2979736328125,5.676269054412842,-7.629394054412842,-2.197265625,5
1734787633.3323824,0.7900390625,-0.0479736328125,0.2515869140625,0.1831054538488388,12.329100608825684,11.962889671325684,5
1734787633.4524474,0.4825439453125,-0.0302734375,0.1572265625,-14.709471702575684,6.347655773162842,11.901854515075684,5
1734787633.5725708,0.7403564453125,0.09619140625,0.15869140625,-4.45556640625,16.90673828125,18.61572265625,5
1734787633.692084,0.8594970703125,0.1075439453125,0.1629638671875,8.60595703125,27.160642623901367,32.65380859375,5
1734787633.8125398,1.0697021484375,0.102294921875,0.162353515625,0.7934569716453552,-13.488768577575684,12.390135765075684,5
1734787633.932376,1.3399658203125,0.1605224609375,0.2431640625,-5.859374523162842,-18.798828125,-10.742186546325684,5
1734787634.0524828,1.3743896484375,0.2667236328125,0.328369140625,11.535643577575684,-3.662109136581421,-0.4882812201976776,5
1734787634.1725628,1.695068359375,0.268310546875,0.3990478515625,9.58251953125,-16.2353515625,-0.2441406100988388,5
1734787634.2924805,1.194091796875,0.1343994140625,0.27587890625,-7.446288585662842,1.15966796875,-1.7089842557907104,5
1734787634.4130826,0.9649658203125,0.163818359375,0.279296875,-5.493163585662842,12.145995140075684,-5.554198741912842,5
1734787634.53295,0.7088623046875,0.0877685546875,0.2149658203125,-6.591796398162842,11.047362327575684,-4.82177734375,5
1734787634.6531465,0.598388671875,0.0799560546875,0.102783203125,-6.530761241912842,-16.29638671875,-26.489255905151367,5
1734787634.7726562,0.65380859375,0.0684814453125,0.156005859375,8.544921875,-32.958984375,-35.0341796875,5
1734787634.892968,1.365478515625,-0.013916015625,0.2073974609375,14.343260765075684,28.015134811401367,10.070799827575684,5
1734787635.0131125,0.82861328125,-0.08544921875,0.3017578125,7.934569835662842,4.33349609375,10.253905296325684,5
1734787635.1330802,0.990966796875,0.0208740234375,0.28125,2.13623046875,-15.136717796325684,-9.521484375,5
1734787635.2531023,0.9566650390625,-0.0035400390625,0.2652587890625,-3.051757574081421,-3.540038824081421,0.8544921278953552,5
1734787635.3729155,0.9605712890625,-0.0035400390625,0.2867431640625,-4.69970703125,-1.03759765625,-3.540038824081421,5
1734787635.929924,0.9404296875,0.024658203125,0.3031005859375,-8.23974609375,-3.540038824081421,3.295898199081421,6
1734787635.930888,0.912353515625,-0.007080078125,0.3033447265625,-2.0751953125,-2.746581792831421,-4.69970703125,6
1734787635.9318254,0.94091796875,0.0343017578125,0.3123779296875,0.2441406100988388,-2.197265625,-2.01416015625,6
1734787635.9318254,0.9288330078125,0.0018310546875,0.313232421875,-0.0610351525247097,-2.868652105331421,-1.7089842557907104,6
1734787635.9328237,0.9083251953125,0.0069580078125,0.3077392578125,3.295898199081421,-1.2817381620407104,-0.2441406100988388,6
1734787636.0327327,0.925537109375,-0.014404296875,0.316650390625,0.4882812201976776,-0.8544921278953552,0.2441406100988388,6
1734787636.15239,0.9244384765625,-0.010498046875,0.3153076171875,0.6103515625,-1.2817381620407104,-0.1831054538488388,6
1734787636.272562,0.959228515625,-0.0069580078125,0.3046875,2.990722417831421,3.479003667831421,0.9765624403953552,6
1734787636.3931317,0.93798828125,-0.0074462890625,0.3060302734375,2.13623046875,0.1220703050494194,0.9765624403953552,6
1734787636.5123708,0.9239501953125,-0.0040283203125,0.314453125,3.051757574081421,2.01416015625,0.1831054538488388,6
1734787636.6322486,0.9588623046875,-0.0133056640625,0.3050537109375,4.7607421875,0.7324218153953552,-1.4648436307907104,6
1734787636.7527926,0.8704833984375,-0.0225830078125,0.2874755859375,-1.3427733182907104,5.065917491912842,8.30078125,6
1734787636.871853,0.68701171875,0.042724609375,0.2288818359375,-5.615233898162842,-35.82763671875,7.568358898162842,6
1734787636.992607,0.427490234375,-0.0167236328125,0.20556640625,-9.8876953125,-11.108397483825684,15.808104515075684,6
1734787637.1121106,0.9111328125,0.11181640625,0.3087158203125,-8.056640625,6.835937023162842,22.216794967651367,6
1734787637.2325196,0.9039306640625,0.091796875,0.321044921875,-9.765625,15.136717796325684,13.366698265075684,6
1734787637.3519175,1.1773681640625,0.1663818359375,0.39501953125,-2.3193359375,11.291502952575684,6.835937023162842,6
1734787637.4731543,1.4306640625,0.191650390625,0.4837646484375,20.202634811401367,-5.981444835662842,-10.437010765075684,6
1734787637.592522,1.8465576171875,0.3409423828125,0.61376953125,4.150390625,20.080564498901367,20.935056686401367,6
1734787637.7130086,1.23193359375,0.230224609375,0.4671630859375,-0.6713866591453552,41.259761810302734,2.50244140625,6
1734787637.8328724,0.973388671875,0.1822509765625,0.316162109375,-6.835937023162842,11.535643577575684,3.967284917831421,6
1734787637.952929,0.7716064453125,0.1015625,0.25048828125,-10.864256858825684,37.04833984375,7.141112804412842,6
1734787638.0728362,0.68798828125,0.13671875,0.1134033203125,-12.512206077575684,3.356933355331421,-18.5546875,6
1734787638.1927216,0.4561767578125,0.02783203125,0.072265625,-3.601073980331421,-30.578611373901367,-41.320796966552734,6
1734787638.3128788,1.0946044921875,0.1162109375,0.0982666015625,25.817869186401367,13.793944358825684,6.042479991912842,6
1734787638.4329994,0.855712890625,-0.0035400390625,0.186279296875,-0.3662109076976776,-18.85986328125,-6.896972179412842,6
1734787638.5528233,1.0411376953125,-0.02197265625,0.246826171875,14.404295921325684,-7.141112804412842,-0.30517578125,6
1734787638.6730459,0.88818359375,0.0736083984375,0.2430419921875,2.3193359375,-10.437010765075684,-4.150390625,6
1734787638.793116,1.0247802734375,0.046630859375,0.264404296875,-0.0610351525247097,-4.21142578125,-3.417968511581421,6
1734787638.9128406,0.9417724609375,0.0167236328125,0.2822265625,1.7700194120407104,1.03759765625,-2.01416015625,6
1734787639.4511065,0.944091796875,0.0299072265625,0.2554931640625,-1.3427733182907104,-2.44140625,-2.807616949081421,7
1734787639.4520824,0.95263671875,0.0023193359375,0.2567138671875,-0.9765624403953552,-0.6103515625,-2.685546636581421,7
1734787639.4520824,0.927734375,0.013427734375,0.2767333984375,1.6479490995407104,-1.6479490995407104,-3.540038824081421,7
1734787639.4530888,0.97265625,0.012939453125,0.2764892578125,1.3427733182907104,-4.638671875,-1.220703125,7
1734787639.512088,0.9129638671875,0.0166015625,0.269775390625,2.929687261581421,-0.6103515625,-0.0610351525247097,7
1734787639.6326313,0.9898681640625,-0.0166015625,0.280029296875,3.295898199081421,1.4038084745407104,1.8920897245407104,7
1734787639.7526097,0.960693359375,-0.0035400390625,0.260986328125,-1.5869139432907104,-2.929687261581421,0.2441406100988388,7
1734787639.8728118,0.963134765625,0.0015869140625,0.2840576171875,-0.6103515625,0.0610351525247097,0.3662109076976776,7
1734787639.9928699,0.966064453125,0.00439453125,0.2801513671875,-2.01416015625,-0.6103515625,-0.2441406100988388,7
1734787640.112773,0.958740234375,-0.0040283203125,0.2694091796875,-1.4038084745407104,1.8920897245407104,-0.6713866591453552,7
1734787640.2320719,0.9443359375,0.0107421875,0.2796630859375,-1.3427733182907104,1.9531248807907104,1.4648436307907104,7
1734787640.3523102,0.9039306640625,-0.0203857421875,0.2288818359375,-4.08935546875,15.441893577575684,12.145995140075684,7
1734787640.4721909,0.7681884765625,0.05078125,0.156005859375,-14.709471702575684,7.507323741912842,12.268065452575684,7
1734787640.5926404,0.415283203125,0.039794921875,0.138916015625,-4.0283203125,-39.61181640625,17.7001953125,7
1734787640.7119415,0.7315673828125,0.1400146484375,0.19482421875,-7.934569835662842,15.258788108825684,25.634763717651367,7
1734787640.8327777,1.009765625,0.204345703125,0.2791748046875,5.554198741912842,13.000487327575684,11.352538108825684,7
1734787640.952649,1.1160888671875,0.1861572265625,0.2403564453125,-3.051757574081421,2.807616949081421,-0.6103515625,7
1734787641.0725691,1.3604736328125,0.2301025390625,0.236328125,-3.540038824081421,41.625972747802734,7.690429210662842,7
1734787641.1929386,1.6571044921875,0.3896484375,0.3404541015625,8.056640625,-8.056640625,3.601073980331421,7
1734787641.312852,1.36328125,0.22998046875,0.2030029296875,5.432128429412842,-27.709959030151367,-11.657713890075684,7
1734787641.4921825,1.1304931640625,0.22119140625,0.264404296875,-3.601073980331421,-7.263183116912842,0.9765624403953552,7
1734787641.5530558,0.798828125,0.1158447265625,0.2139892578125,-0.6103515625,13.122557640075684,2.0751953125,7
1734787641.6725984,0.4891357421875,0.085205078125,0.1123046875,-8.6669921875,10.131834983825684,-8.48388671875,7
1734787641.7928884,0.4154052734375,0.0528564453125,0.11279296875,-5.798339366912842,-18.24951171875,-20.629880905151367,7
1734787641.912706,1.001708984375,0.18798828125,0.28759765625,3.173827886581421,0.0,-3.417968511581421,7
1734787642.032879,0.97900390625,0.013671875,0.176025390625,1.7700194120407104,-7.568358898162842,-8.544921875,7
1734787642.1531746,0.9176025390625,0.10400390625,0.2703857421875,11.413573265075684,-5.0048828125,-4.94384765625,7
1734787642.2726924,1.0360107421875,0.099609375,0.2440185546875,-4.08935546875,-5.432128429412842,-3.234863042831421,7
1734787642.3930242,0.9847412109375,0.08935546875,0.26953125,-4.2724609375,5.981444835662842,-1.2817381620407104,7
1734787642.974607,0.89990234375,0.06494140625,0.2738037109375,-1.9531248807907104,-1.3427733182907104,-2.807616949081421,8
1734787642.9756076,0.99169921875,0.0751953125,0.2650146484375,-2.44140625,-3.051757574081421,-2.13623046875,8
1734787642.9766064,0.97119140625,0.0848388671875,0.2672119140625,0.8544921278953552,-4.45556640625,-1.5258787870407104,8
1734787642.9766064,0.93701171875,0.0882568359375,0.2735595703125,1.7089842557907104,-3.479003667831421,0.3662109076976776,8
1734787642.9923468,0.972412109375,0.0552978515625,0.2755126953125,-4.8828125,-2.3193359375,-0.1220703050494194,8
1734787643.1119921,0.8924560546875,0.0860595703125,0.2796630859375,-0.4272460639476776,-2.25830078125,-3.417968511581421,8
1734787643.2318902,0.97705078125,0.0723876953125,0.3099365234375,2.44140625,4.638671875,0.54931640625,8
1734787643.3523757,0.9561767578125,0.050537109375,0.307373046875,1.220703125,0.4272460639476776,-2.25830078125,8
1734787643.472411,0.92919921875,0.0447998046875,0.2972412109375,0.54931640625,2.25830078125,-1.15966796875,8
1734787643.5932927,0.9300537109375,0.0543212890625,0.30029296875,-0.30517578125,0.6103515625,0.7934569716453552,8
1734787643.7126694,0.9403076171875,0.044677734375,0.2857666015625,-0.1831054538488388,2.25830078125,3.356933355331421,8
1734787643.832683,0.876708984375,0.053466796875,0.2490234375,0.1831054538488388,11.596678733825684,8.4228515625,8
1734787643.9521482,0.63525390625,0.0638427734375,0.156005859375,-13.793944358825684,28.564451217651367,15.991209983825684,8
1734787644.072705,0.5355224609375,0.00927734375,0.1053466796875,-31.188962936401367,14.526366233825684,17.9443359375,8
1734787644.1922827,0.9600830078125,0.2645263671875,0.1583251953125,5.676269054412842,21.606443405151367,20.446775436401367,8
1734787644.3124027,1.0140380859375,0.216796875,0.05078125,7.263183116912842,8.1787109375,9.58251953125,8
1734787644.4326632,1.11279296875,0.2186279296875,0.1429443359375,-4.5166015625,-3.540038824081421,-1.5869139432907104,8
1734787644.552877,1.4378662109375,0.3431396484375,0.182373046875,3.417968511581421,-12.145995140075684,-4.150390625,8
1734787644.6728697,1.8173828125,0.4036865234375,0.2208251953125,1.4648436307907104,-12.756346702575684,-2.868652105331421,8
1734787644.7929244,1.257568359375,0.28564453125,0.22314453125,-5.859374523162842,5.798339366912842,-0.4272460639476776,8
1734787644.913114,1.1322021484375,0.2447509765625,0.2113037109375,0.0,-1.6479490995407104,0.8544921278953552,8
1734787645.0331805,0.7843017578125,0.149169921875,0.1490478515625,2.990722417831421,-11.169432640075684,-7.812499523162842,8
1734787645.1531682,0.2587890625,0.03857421875,0.1568603515625,-9.27734375,-17.333984375,-19.53125,8
1734787645.2731996,0.5604248046875,0.089599609375,0.1279296875,11.108397483825684,-25.756834030151367,-29.846189498901367,8
1734787645.392545,1.05126953125,0.0968017578125,0.23583984375,16.2353515625,3.173827886581421,-2.01416015625,8
1734787645.5128317,0.9429931640625,-0.017578125,0.301025390625,-2.197265625,-11.291502952575684,-14.099120140075684,8
1734787645.6330502,0.9779052734375,0.0762939453125,0.3177490234375,5.554198741912842,-1.15966796875,2.50244140625,8
1734787645.7524834,0.8848876953125,0.0150146484375,0.294189453125,3.112792730331421,1.4648436307907104,-2.25830078125,8
1734787645.8723984,0.942138671875,0.04052734375,0.315673828125,-2.0751953125,1.5869139432907104,-1.5869139432907104,8
1734787646.4809318,0.9447021484375,0.05419921875,0.3087158203125,-2.807616949081421,-0.1220703050494194,-1.7089842557907104,9
1734787646.4819345,0.92333984375,0.034912109375,0.291259765625,-2.25830078125,-1.0986328125,-2.44140625,9
1734787646.4829187,0.9068603515625,0.0289306640625,0.2850341796875,-2.0751953125,2.50244140625,-1.7700194120407104,9
1734787646.4839168,0.9560546875,0.019775390625,0.2918701171875,-4.82177734375,0.7934569716453552,-3.051757574081421,9
1734787646.4839168,0.965087890625,0.022705078125,0.30615234375,-3.601073980331421,-0.30517578125,-2.929687261581421,9
1734787646.5928688,0.970703125,0.020751953125,0.3028564453125,-3.051757574081421,-2.685546636581421,-3.417968511581421,9
1734787646.711864,0.9744873046875,0.0093994140625,0.3040771484375,-2.13623046875,-1.5258787870407104,-2.624511480331421,9
1734787646.8323045,0.9586181640625,0.0186767578125,0.30908203125,-3.540038824081421,-2.746581792831421,-5.981444835662842,9
1734787646.952983,0.9320068359375,-0.0018310546875,0.3228759765625,-6.530761241912842,-5.126952648162842,-6.164550304412842,9
1734787647.0730827,0.9163818359375,0.0152587890625,0.292236328125,0.7324218153953552,0.0610351525247097,-3.540038824081421,9
1734787647.1927376,0.9432373046875,-0.0108642578125,0.340576171875,0.54931640625,4.57763671875,2.50244140625,9
1734787647.3121102,0.8935546875,-0.0069580078125,0.2938232421875,3.784179449081421,4.57763671875,-0.4882812201976776,9
1734787647.4323876,0.8824462890625,0.031005859375,0.276611328125,-1.9531248807907104,10.437010765075684,6.530761241912842,9
1734787647.5524805,0.60693359375,0.017333984375,0.191162109375,-4.69970703125,23.437498092651367,16.11328125,9
1734787647.6721175,0.59765625,0.0362548828125,0.112548828125,-6.347655773162842,20.263669967651367,13.671874046325684,9
1734787647.7918007,0.825927734375,0.155517578125,0.0687255859375,4.0283203125,43.823238372802734,28.076169967651367,9
1734787647.9124742,1.0306396484375,0.1597900390625,0.0096435546875,15.136717796325684,24.291990280151367,22.277830123901367,9
1734787648.032757,1.28125,0.1708984375,0.10009765625,12.329100608825684,13.671874046325684,15.624999046325684,9
1734787648.1662707,1.4169921875,0.26123046875,0.1162109375,12.573241233825684,-45.227046966552734,4.150390625,9
1734787648.2729769,1.684814453125,0.4124755859375,0.1734619140625,-3.845214605331421,-40.771480560302734,-8.97216796875,9
1734787648.4529188,1.17041015625,0.253662109375,0.2294921875,-4.8828125,3.662109136581421,3.540038824081421,9
1734787648.5127447,1.0831298828125,0.242431640625,0.2032470703125,-7.019042491912842,6.591796398162842,-3.967284917831421,9
1734787648.632876,0.7891845703125,0.13134765625,0.126220703125,-6.347655773162842,16.357421875,-7.812499523162842,9
1734787648.752902,0.394287109375,0.0640869140625,0.0831298828125,-11.169432640075684,-4.94384765625,-36.7431640625,9
1734787648.8727622,0.6728515625,0.018310546875,0.1368408203125,-12.329100608825684,-11.901854515075684,-52.856441497802734,9
1734787648.9925306,1.1224365234375,0.0018310546875,0.088134765625,-8.7890625,0.4272460639476776,-22.460935592651367,9
1734787649.1721857,0.81787109375,0.00341796875,0.257568359375,15.563963890075684,28.564451217651367,0.2441406100988388,9
1734787649.2333293,1.015380859375,-0.0587158203125,0.220458984375,11.657713890075684,-10.620116233825684,-6.286620616912842,9
1734787649.3523867,1.02099609375,-0.0579833984375,0.198974609375,2.746581792831421,-1.3427733182907104,-3.417968511581421,9
1734787649.4723654,1.0057373046875,-0.0615234375,0.1859130859375,3.723144292831421,-9.1552734375,-5.371093273162842,9
1734787650.0104053,1.00341796875,-0.0645751953125,0.184814453125,2.746581792831421,-2.868652105331421,-4.2724609375,10
1734787650.0104053,0.9635009765625,-0.1002197265625,0.19482421875,5.126952648162842,0.9765624403953552,-6.408690929412842,10
1734787650.011512,0.972412109375,-0.074462890625,0.232177734375,4.8828125,-0.30517578125,-1.4038084745407104,10
1734787650.0124123,0.9581298828125,-0.1302490234375,0.212646484375,0.54931640625,-7.934569835662842,-1.03759765625,10
1734787650.0719593,0.919677734375,-0.07958984375,0.2001953125,-1.7700194120407104,-2.0751953125,-2.3193359375,10
1734787650.1925826,0.9658203125,-0.1041259765625,0.2425537109375,-0.6713866591453552,2.44140625,-1.8310545682907104,10
1734787650.3723793,0.97802734375,-0.1373291015625,0.22119140625,0.3662109076976776,-0.6713866591453552,-3.967284917831421,10
1734787650.3738034,0.9354248046875,-0.1119384765625,0.2266845703125,-1.4038084745407104,-2.25830078125,-0.9155272841453552,10
1734787650.4927409,0.9410400390625,-0.1221923828125,0.2425537109375,0.6713866591453552,0.4272460639476776,0.6103515625,10
1734787650.61219,0.94677734375,-0.135009765625,0.233642578125,2.38037109375,0.30517578125,-0.3662109076976776,10
1734787650.7322354,0.960693359375,-0.1209716796875,0.223876953125,1.0986328125,2.624511480331421,2.929687261581421,10
1734787650.85241,0.8623046875,-0.084716796875,0.18896484375,3.479003667831421,11.474608421325684,14.709471702575684,10
1734787650.9719331,0.4881591796875,-0.0936279296875,0.1397705078125,-8.23974609375,5.187987804412842,8.7890625,10
1734787651.0922334,0.6614990234375,-0.006103515625,0.081298828125,-4.57763671875,18.310546875,16.357421875,10
1734787651.2124274,0.91455078125,0.0457763671875,0.058837890625,9.033203125,19.95849609375,26.123044967651367,10
1734787651.3321083,1.1015625,0.031494140625,0.1346435546875,5.798339366912842,-6.042479991912842,20.446775436401367,10
1734787651.4516697,1.4068603515625,0.1148681640625,0.2464599609375,3.784179449081421,16.17431640625,17.02880859375,10
1734787651.5729153,1.8280029296875,0.02685546875,0.224609375,-5.676269054412842,-11.291502952575684,7.141112804412842,10
1734787651.6925452,1.433349609375,0.166748046875,0.2449951171875,-9.6435546875,-23.559568405151367,-11.169432640075684,10
1734787651.8122227,1.199951171875,0.1231689453125,0.170654296875,-7.385253429412842,8.60595703125,-2.01416015625,10
1734787651.9330406,0.9825439453125,0.1473388671875,0.138916015625,5.737304210662842,5.737304210662842,8.544921875,10
1734787652.0524483,0.6126708984375,0.09228515625,0.124755859375,8.23974609375,1.0986328125,22.644041061401367,10
1734787652.1724875,0.4375,0.0875244140625,0.1021728515625,7.812499523162842,-46.081539154052734,-15.075682640075684,10
1734787652.2924595,0.8255615234375,0.0137939453125,0.2431640625,11.901854515075684,-12.512206077575684,-5.249022960662842,10
1734787652.412136,1.1307373046875,0.115234375,0.218505859375,-5.798339366912842,-5.065917491912842,-5.920409679412842,10
1734787652.5325708,0.952880859375,0.02294921875,0.25,12.023924827575684,27.770994186401367,17.08984375,10
1734787652.6522608,0.861572265625,0.1004638671875,0.2303466796875,-3.112792730331421,-0.9765624403953552,-7.202147960662842,10
1734787652.7728903,0.9742431640625,0.1043701171875,0.221923828125,-10.681151390075684,-6.164550304412842,-4.0283203125,10
1734787652.8928983,0.9520263671875,0.0693359375,0.282958984375,-4.33349609375,-1.15966796875,-2.44140625,10
1734787653.0126262,0.9454345703125,0.0858154296875,0.2523193359375,-9.765625,-3.479003667831421,-3.112792730331421,10
1734787653.5234532,0.952392578125,0.0836181640625,0.2532958984375,-8.544921875,1.4038084745407104,0.7324218153953552,11
1734787653.5234532,0.93701171875,0.059814453125,0.2598876953125,-4.39453125,-2.13623046875,-4.33349609375,11
1734787653.5246093,0.9366455078125,0.077392578125,0.2535400390625,-1.9531248807907104,-2.44140625,-3.356933355331421,11
1734787653.5250704,0.9671630859375,0.077880859375,0.2496337890625,-0.7324218153953552,-1.5869139432907104,-3.906249761581421,11
1734787653.6118774,0.94873046875,0.0684814453125,0.235107421875,2.807616949081421,1.4038084745407104,-2.868652105331421,11
1734787653.7328804,0.9693603515625,0.0489501953125,0.2481689453125,0.4882812201976776,4.0283203125,-0.54931640625,11
1734787653.8519197,0.961669921875,0.060791015625,0.2493896484375,-2.01416015625,-0.6713866591453552,-3.845214605331421,11
1734787653.9727383,0.92333984375,0.0384521484375,0.2435302734375,2.13623046875,1.3427733182907104,-0.2441406100988388,11
1734787654.0926852,0.9903564453125,0.036865234375,0.261962890625,0.4272460639476776,3.784179449081421,0.2441406100988388,11
1734787654.2122254,0.971923828125,0.0421142578125,0.254638671875,1.3427733182907104,-0.6103515625,-0.2441406100988388,11
1734787654.3320925,0.939453125,0.028564453125,0.23828125,0.9155272841453552,2.197265625,1.0986328125,11
1734787654.4526086,0.801513671875,0.05224609375,0.1956787109375,0.30517578125,11.596678733825684,12.145995140075684,11
1734787654.6316328,0.5169677734375,0.02978515625,0.107177734375,-7.019042491912842,-5.493163585662842,-1.220703125,11
1734787654.692599,0.7889404296875,0.0433349609375,0.176513671875,-2.197265625,22.888181686401367,5.798339366912842,11
1734787654.8124237,0.8580322265625,0.0941162109375,0.1336669921875,-11.352538108825684,20.751951217651367,9.033203125,11
1734787654.9322474,1.0908203125,0.1925048828125,0.096923828125,-0.7934569716453552,11.718749046325684,11.474608421325684,11
1734787655.0524926,1.2049560546875,0.164306640625,0.2247314453125,5.310058116912842,11.413573265075684,13.488768577575684,11
1734787655.1730404,1.633056640625,0.1815185546875,0.2210693359375,-4.5166015625,7.873534679412842,5.554198741912842,11
1734787655.292766,1.5860595703125,0.24560546875,0.1282958984375,0.0610351525247097,-15.441893577575684,-10.375975608825684,11
1734787655.4133868,1.2208251953125,0.16357421875,0.173095703125,-1.5258787870407104,9.09423828125,4.150390625,11
1734787655.5332148,1.076416015625,0.08740234375,0.098876953125,-3.662109136581421,4.94384765625,6.408690929412842,11
1734787655.6531477,0.93798828125,0.1402587890625,0.1212158203125,-0.7934569716453552,-6.286620616912842,-3.906249761581421,11
1734787655.773046,0.548583984375,0.0540771484375,0.060791015625,0.1220703050494194,14.953612327575684,-13.183592796325684,11
1734787655.892763,0.498779296875,0.1163330078125,0.0487060546875,-8.60595703125,-33.75244140625,-30.212400436401367,11
1734787656.0129824,1.0604248046875,0.188720703125,0.0699462890625,29.296873092651367,16.54052734375,0.30517578125,11
1734787656.1325314,0.8927001953125,-0.0125732421875,0.1602783203125,-0.2441406100988388,-23.742673873901367,-2.990722417831421,11
1734787656.2531579,1.0352783203125,0.0621337890625,0.1156005859375,7.385253429412842,-4.94384765625,-5.859374523162842,11
1734787656.372694,0.9423828125,-0.0152587890625,0.1470947265625,5.065917491912842,6.469726085662842,-3.356933355331421,11
1734787656.4928358,1.044189453125,0.0172119140625,0.176025390625,-8.6669921875,-1.03759765625,-4.82177734375,11
1734787657.0461307,0.989501953125,0.010986328125,0.153564453125,-9.521484375,-3.784179449081421,-4.21142578125,12
1734787657.04705,0.964111328125,0.042236328125,0.1678466796875,-5.371093273162842,-8.6669921875,-2.807616949081421,12
1734787657.04705,0.973388671875,0.024169921875,0.17919921875,3.173827886581421,-2.50244140625,-0.0610351525247097,12
1734787657.0480769,0.947021484375,0.0079345703125,0.1812744140625,4.150390625,-2.197265625,-0.4882812201976776,12
1734787657.092051,0.9891357421875,-0.00341796875,0.17529296875,3.112792730331421,-0.9765624403953552,0.30517578125,12
1734787657.2118943,0.9981689453125,0.00927734375,0.176513671875,2.563476324081421,-2.3193359375,-0.9155272841453552,12
1734787657.331975,0.96044921875,0.0018310546875,0.1800537109375,1.7089842557907104,0.1220703050494194,0.1220703050494194,12
1734787657.4523635,0.958740234375,-0.0037841796875,0.17333984375,0.3662109076976776,1.15966796875,1.7700194120407104,12
1734787657.5726748,0.8619384765625,0.02880859375,0.1456298828125,-1.5258787870407104,12.756346702575684,11.779784202575684,12
1734787657.6926742,0.6455078125,0.004638671875,0.1072998046875,-15.136717796325684,7.995604991912842,17.7001953125,12
1734787657.812538,0.572265625,0.118896484375,0.031982421875,-8.85009765625,-5.981444835662842,12.817381858825684,12
1734787657.9322755,1.009033203125,0.1553955078125,0.06396484375,3.540038824081421,22.949216842651367,8.36181640625,12
1734787658.0518918,1.087890625,0.1397705078125,0.1260986328125,9.21630859375,-21.118162155151367,8.056640625,12
1734787658.1718729,1.2288818359375,0.1373291015625,0.19775390625,9.58251953125,-25.695798873901367,-3.479003667831421,12
1734787658.2917752,1.7310791015625,0.199951171875,0.2249755859375,-0.1831054538488388,16.2353515625,13.610838890075684,12
1734787658.412093,1.5650634765625,0.2718505859375,0.2469482421875,-6.774901866912842,-25.329587936401367,-7.751464366912842,12
1734787658.5319867,1.2125244140625,0.1859130859375,0.25048828125,-4.7607421875,-2.624511480331421,-5.676269054412842,12
1734787658.6521883,0.9678955078125,0.174560546875,0.1961669921875,4.39453125,5.798339366912842,-2.685546636581421,12
1734787658.7725897,0.713623046875,0.0771484375,0.1595458984375,1.6479490995407104,2.50244140625,7.019042491912842,12
1734787658.892717,0.3321533203125,0.037353515625,0.0465087890625,-8.36181640625,-10.681151390075684,-5.798339366912842,12
1734787659.0125992,0.5645751953125,0.210205078125,0.132568359375,-0.9155272841453552,-28.930662155151367,-22.277830123901367,12
1734787659.1320577,1.094482421875,0.02978515625,0.10693359375,21.911619186401367,12.756346702575684,-2.868652105331421,12
1734787659.2523565,0.8638916015625,0.0943603515625,0.2330322265625,-0.54931640625,12.817381858825684,-6.774901866912842,12
1734787659.3731883,0.984130859375,0.03076171875,0.181396484375,0.1220703050494194,-13.671874046325684,-5.0048828125,12
1734787659.492658,0.9356689453125,0.0223388671875,0.2178955078125,-2.197265625,1.4038084745407104,0.1831054538488388,12
1734787659.613376,0.9600830078125,0.069091796875,0.213134765625,5.493163585662842,4.2724609375,0.4272460639476776,12
1734787659.733086,1.0140380859375,0.0191650390625,0.2225341796875,-1.5869139432907104,-2.50244140625,-2.929687261581421,12
1734787659.8530822,0.9598388671875,0.025146484375,0.2301025390625,-4.45556640625,-6.164550304412842,-5.310058116912842,12
1734787659.9721696,0.9468994140625,0.0340576171875,0.2176513671875,-6.530761241912842,-3.234863042831421,-1.7700194120407104,12
1734787660.5692184,0.994384765625,0.025146484375,0.225830078125,-5.920409679412842,-1.7700194120407104,-0.9765624403953552,13
1734787660.570217,0.9873046875,0.0389404296875,0.2216796875,-3.845214605331421,-4.45556640625,-2.0751953125,13
1734787660.5712168,0.9644775390625,0.03369140625,0.2333984375,2.50244140625,0.0,-1.2817381620407104,13
1734787660.5722163,0.9639892578125,0.0028076171875,0.2259521484375,2.25830078125,-1.3427733182907104,-2.746581792831421,13
1734787660.573114,0.9681396484375,0.037109375,0.2320556640625,0.7324218153953552,-1.5258787870407104,-0.9765624403953552,13
1734787660.692474,0.97021484375,0.033447265625,0.2301025390625,0.7324218153953552,3.845214605331421,1.5869139432907104,13
1734787660.812328,0.985595703125,0.01708984375,0.22802734375,4.150390625,0.8544921278953552,0.8544921278953552,13
1734787660.9325273,0.9681396484375,0.0107421875,0.2188720703125,2.01416015625,-1.8310545682907104,0.0610351525247097,13
1734787661.0517533,0.934814453125,0.0345458984375,0.234375,-0.0610351525247097,1.6479490995407104,3.234863042831421,13
1734787661.1729646,0.9892578125,0.0211181640625,0.22509765625,-0.2441406100988388,3.662109136581421,3.723144292831421,13
1734787661.2924302,0.9656982421875,0.0377197265625,0.2119140625,0.0,2.929687261581421,5.187987804412842,13
1734787661.412814,0.8380126953125,0.048583984375,0.1734619140625,1.4648436307907104,14.343260765075684,11.108397483825684,13
1734787661.5323422,0.586181640625,-0.0452880859375,0.0831298828125,-17.7001953125,4.39453125,5.0048828125,13
1734787661.6525028,0.75830078125,0.1414794921875,0.2244873046875,0.4272460639476776,20.874021530151367,26.306150436401367,13
1734787661.7721503,0.723876953125,0.1751708984375,0.11572265625,14.831542015075684,-10.803221702575684,4.82177734375,13
1734787661.8922918,1.06689453125,0.1494140625,0.16015625,-7.751464366912842,-14.221190452575684,12.145995140075684,13
1734787662.0120075,1.0830078125,0.1689453125,0.1697998046875,-4.638671875,-6.652831554412842,0.7324218153953552,13
1734787662.1328428,1.234619140625,0.1968994140625,0.2501220703125,-5.310058116912842,15.624999046325684,1.2817381620407104,13
1734787662.2528062,1.2572021484375,0.16845703125,0.301025390625,-5.920409679412842,-13.366698265075684,-9.58251953125,13
1734787662.3722408,1.6009521484375,0.353759765625,0.2506103515625,-5.310058116912842,-8.30078125,-4.5166015625,13
1734787662.492794,1.307373046875,0.287353515625,0.2196044921875,-2.624511480331421,27.648923873901367,6.225585460662842,13
1734787662.6123333,1.038818359375,0.1973876953125,0.140625,2.624511480331421,-0.0610351525247097,4.0283203125,13
1734787662.7326324,0.831787109375,0.153076171875,0.15966796875,6.896972179412842,2.25830078125,4.57763671875,13
1734787662.7924635,0.7740478515625,0.1737060546875,0.111083984375,6.225585460662842,8.85009765625,1.220703125,13
1734787662.9124465,0.636962890625,0.1085205078125,0.0654296875,-0.0610351525247097,-3.906249761581421,-17.27294921875,13
1734787663.032832,0.8408203125,0.119384765625,0.150146484375,0.4882812201976776,-1.8920897245407104,-16.845703125,13
1734787663.1531022,1.152099609375,0.1290283203125,0.14892578125,1.4038084745407104,-0.0610351525247097,-7.141112804412842,13
1734787663.2727106,0.904052734375,0.0118408203125,0.2454833984375,5.432128429412842,-10.437010765075684,-6.286620616912842,13
1734787663.3924723,0.9520263671875,0.1063232421875,0.2052001953125,-2.50244140625,-12.268065452575684,-12.145995140075684,13
1734787663.5122344,0.9395751953125,0.064208984375,0.259521484375,-2.685546636581421,6.591796398162842,-1.2817381620407104,13
1734787664.0707414,0.9578857421875,0.0413818359375,0.257568359375,-1.15966796875,-3.540038824081421,-4.638671875,14
1734787664.0716527,0.9534912109375,0.057861328125,0.25244140625,-1.15966796875,-0.54931640625,-3.234863042831421,14
1734787664.072651,0.99365234375,0.055908203125,0.25927734375,-0.9765624403953552,-3.173827886581421,-2.01416015625,14
1734787664.072651,0.951416015625,0.0423583984375,0.2669677734375,0.4882812201976776,-2.50244140625,-1.7700194120407104,14
1734787664.1119118,0.9639892578125,0.03466796875,0.264892578125,1.5869139432907104,-1.0986328125,-1.0986328125,14
1734787664.2323036,0.936767578125,0.030029296875,0.2593994140625,0.7934569716453552,-0.2441406100988388,0.9155272841453552,14
1734787664.3526115,0.9620361328125,0.023681640625,0.2601318359375,-0.9765624403953552,-1.4038084745407104,-0.0610351525247097,14
1734787664.4727335,0.967529296875,0.0255126953125,0.2647705078125,-0.2441406100988388,-0.4882812201976776,-0.4272460639476776,14
1734787664.5924027,0.9598388671875,0.0255126953125,0.2628173828125,-0.6103515625,-0.4882812201976776,-0.4882812201976776,14
1734787664.713183,0.95361328125,0.029052734375,0.269775390625,0.1831054538488388,-0.6713866591453552,-1.03759765625,14
1734787664.8327837,0.94091796875,0.0269775390625,0.2703857421875,2.3193359375,0.2441406100988388,0.0610351525247097,14
1734787664.9517708,0.838134765625,0.0430908203125,0.2357177734375,-0.30517578125,8.60595703125,12.451170921325684,14
1734787665.0724545,0.5455322265625,0.081298828125,0.1163330078125,-8.11767578125,10.742186546325684,15.747069358825684,14
1734787665.192031,0.559814453125,0.02978515625,0.076904296875,-17.88330078125,25.939939498901367,23.376462936401367,14
1734787665.3118453,0.961669921875,0.138427734375,0.1793212890625,-3.906249761581421,16.4794921875,18.6767578125,14
1734787665.432403,1.0625,0.1854248046875,0.1673583984375,-5.676269054412842,6.774901866912842,3.723144292831421,14
1734787665.5518556,1.2449951171875,0.1827392578125,0.1224365234375,-0.6103515625,-6.103515148162842,-2.38037109375,14
1734787665.6725724,1.72705078125,0.3294677734375,0.2197265625,10.742186546325684,11.779784202575684,6.042479991912842,14
1734787665.791932,1.5296630859375,0.2587890625,0.2763671875,7.019042491912842,-18.1884765625,-4.2724609375,14
1734787665.9130254,1.1103515625,0.2398681640625,0.24365234375,-7.995604991912842,28.259275436401367,3.234863042831421,14
1734787666.0329888,1.0357666015625,0.1700439453125,0.196044921875,10.314940452575684,21.118162155151367,5.920409679412842,14
1734787666.1525216,0.689208984375,0.103515625,0.143310546875,-0.8544921278953552,23.376462936401367,21.850584030151367,14
1734787666.272664,0.555419921875,0.11376953125,0.072265625,-6.591796398162842,10.192870140075684,-10.131834983825684,14
1734787666.3921857,0.5579833984375,0.06884765625,0.12939453125,-4.82177734375,-31.249998092651367,-22.094724655151367,14
1734787666.512539,0.979248046875,0.2156982421875,0.0853271484375,8.6669921875,3.967284917831421,-7.446288585662842,14
1734787666.632111,0.830810546875,0.139404296875,0.20751953125,8.1787109375,-2.807616949081421,-7.568358898162842,14
1734787666.7528546,1.0548095703125,0.0572509765625,0.191162109375,13.000487327575684,-1.8310545682907104,-7.202147960662842,14
1734787666.8721871,0.8758544921875,0.005615234375,0.2352294921875,-1.6479490995407104,-2.3193359375,-8.4228515625,14
1734787666.9921923,0.9700927734375,0.103759765625,0.2344970703125,0.3662109076976776,-7.080077648162842,-6.164550304412842,14
1734787667.5770605,0.9976806640625,0.0570068359375,0.2371826171875,2.13623046875,1.4038084745407104,-1.4038084745407104,15
1734787667.578086,0.9439697265625,0.0662841796875,0.248779296875,-1.5869139432907104,-1.5869139432907104,0.0,15
1734787667.578086,0.9637451171875,0.05029296875,0.2279052734375,-0.30517578125,-3.784179449081421,-1.8310545682907104,15
1734787667.579086,0.9837646484375,0.053466796875,0.228759765625,-1.3427733182907104,-4.150390625,-2.44140625,15
1734787667.591667,0.9708251953125,0.049072265625,0.243408203125,0.6713866591453552,-1.15966796875,-1.9531248807907104,15
1734787667.7122822,0.96337890625,0.041015625,0.240966796875,1.220703125,-1.8920897245407104,-0.7934569716453552,15
1734787667.8325171,0.951416015625,0.0379638671875,0.2470703125,-1.6479490995407104,-1.2817381620407104,-0.9765624403953552,15
1734787667.951987,0.9615478515625,0.0391845703125,0.2470703125,-0.9765624403953552,-0.1831054538488388,0.54931640625,15
1734787668.0722344,0.9775390625,0.028076171875,0.2442626953125,0.9155272841453552,1.5258787870407104,-0.2441406100988388,15
1734787668.1922512,0.9696044921875,0.0467529296875,0.248779296875,0.6103515625,0.8544921278953552,-2.50244140625,15
1734787668.3127918,0.9603271484375,0.04052734375,0.2415771484375,-1.6479490995407104,0.8544921278953552,-0.1220703050494194,15
1734787668.4324477,0.9173583984375,0.02099609375,0.2159423828125,-2.197265625,7.751464366912842,7.019042491912842,15
1734787668.55222,0.55810546875,0.068115234375,0.1019287109375,-7.873534679412842,-2.868652105331421,11.718749046325684,15
1734787668.6719809,0.654296875,0.0830078125,0.097412109375,-17.02880859375,19.8974609375,15.197752952575684,15
1734787668.7926085,0.925537109375,0.2003173828125,0.1295166015625,-14.648436546325684,8.11767578125,17.08984375,15
1734787668.9121668,1.0469970703125,0.218505859375,0.1138916015625,4.39453125,-3.173827886581421,15.869139671325684,15
1734787669.0317066,1.2720947265625,0.2364501953125,0.21826171875,-0.2441406100988388,8.72802734375,13.000487327575684,15
1734787669.153007,1.7127685546875,0.4268798828125,0.334716796875,2.868652105331421,-6.469726085662842,7.873534679412842,15
1734787669.2721603,1.404052734375,0.373046875,0.221435546875,-10.192870140075684,-43.090816497802734,-18.06640625,15
1734787669.3924572,1.1695556640625,0.3431396484375,0.1448974609375,-9.70458984375,2.13623046875,10.314940452575684,15
1734787669.5122778,0.95263671875,0.2734375,0.2169189453125,6.347655773162842,2.746581792831421,2.01416015625,15
1734787669.6330361,0.735595703125,0.1319580078125,0.163818359375,8.1787109375,-8.30078125,-1.8310545682907104,15
1734787669.7523699,0.455078125,0.118408203125,0.1092529296875,16.78466796875,-44.433589935302734,-31.433103561401367,15
1734787669.8724325,0.81640625,0.2178955078125,0.1844482421875,32.470703125,-9.21630859375,-5.737304210662842,15
1734787670.0532682,1.1015625,0.0367431640625,0.3800048828125,7.202147960662842,-11.230467796325684,-21.423337936401367,15
1734787670.112489,0.9940185546875,0.090576171875,0.3114013671875,8.36181640625,6.408690929412842,3.173827886581421,15
1734787670.2327507,0.89892578125,0.0487060546875,0.3260498046875,0.2441406100988388,-2.01416015625,-10.620116233825684,15
1734787670.3522432,0.9747314453125,0.094970703125,0.351318359375,-4.94384765625,-4.69970703125,-7.873534679412842,15
1734787670.4728553,0.91748046875,0.072509765625,0.3330078125,-1.7089842557907104,-5.371093273162842,-8.1787109375,15
1734787670.592272,0.8968505859375,0.03759765625,0.3563232421875,-2.990722417831421,1.03759765625,-3.356933355331421,15
1734787671.098435,0.8857421875,0.0673828125,0.3360595703125,-4.21142578125,-0.6713866591453552,-2.624511480331421,16
1734787671.099436,0.92626953125,0.0362548828125,0.326171875,-4.08935546875,0.7934569716453552,-0.7324218153953552,16
1734787671.099436,0.9498291015625,0.0330810546875,0.319580078125,-2.13623046875,5.493163585662842,-6.713866710662842,16
1734787671.1004388,0.9373779296875,0.074462890625,0.34130859375,-1.5258787870407104,1.5258787870407104,-3.662109136581421,16
1734787671.1915452,0.935546875,0.02734375,0.310546875,-1.2817381620407104,2.38037109375,-2.0751953125,16
1734787671.3121092,0.91943359375,0.0245361328125,0.3148193359375,0.6713866591453552,0.30517578125,-0.30517578125,16
1734787671.4321728,0.9171142578125,0.01708984375,0.326171875,0.4882812201976776,5.310058116912842,1.2817381620407104,16
1734787671.552762,0.94189453125,0.0068359375,0.3170166015625,-0.30517578125,6.591796398162842,-1.03759765625,16
1734787671.6728675,0.956298828125,0.02294921875,0.3009033203125,-0.1831054538488388,0.9765624403953552,0.0,16
1734787671.7924695,0.93310546875,0.0201416015625,0.2989501953125,-0.3662109076976776,-1.0986328125,0.7934569716453552,16
1734787671.9121609,0.9173583984375,0.022216796875,0.2801513671875,-1.03759765625,4.45556640625,5.126952648162842,16
1734787672.0322087,0.8035888671875,0.0306396484375,0.216552734375,-7.568358898162842,16.29638671875,16.17431640625,16
1734787672.2120771,0.4114990234375,-0.0076904296875,0.0885009765625,-14.831542015075684,10.498045921325684,10.314940452575684,16
1734787672.2722003,0.604736328125,0.13671875,0.1761474609375,-2.990722417831421,28.930662155151367,27.709959030151367,16
1734787672.392431,0.8712158203125,0.0770263671875,0.1455078125,-6.408690929412842,3.356933355331421,15.075682640075684,16
1734787672.5123236,1.2525634765625,0.2994384765625,0.2315673828125,-6.347655773162842,-19.47021484375,-3.784179449081421,16
1734787672.633131,1.5535888671875,0.2747802734375,0.2579345703125,3.479003667831421,5.798339366912842,-12.939452171325684,16
1734787672.7527235,1.9937744140625,0.385498046875,0.2642822265625,-0.3662109076976776,6.896972179412842,8.30078125,16
1734787672.8727105,1.2274169921875,0.299560546875,0.261962890625,6.896972179412842,-11.474608421325684,4.08935546875,16
1734787672.9927573,1.15673828125,0.21875,0.2423095703125,17.2119140625,-1.5258787870407104,4.45556640625,16
1734787673.1127293,0.7626953125,0.1083984375,0.21875,0.9155272841453552,1.8920897245407104,15.197752952575684,16
1734787673.2326064,0.7113037109375,0.15478515625,0.088623046875,-13.610838890075684,14.038084983825684,1.2817381620407104,16
1734787673.3521867,0.4205322265625,0.0885009765625,0.072265625,6.164550304412842,-16.4794921875,-27.160642623901367,16
1734787673.4728043,0.93408203125,0.0919189453125,0.171630859375,27.343748092651367,59.631343841552734,32.470703125,16
1734787673.592303,0.5841064453125,0.1112060546875,0.2728271484375,-4.94384765625,-14.099120140075684,-18.24951171875,16
1734787673.7128708,1.0814208984375,0.152099609375,0.2716064453125,1.7700194120407104,-4.150390625,-5.126952648162842,16
1734787673.8325963,0.9212646484375,0.0982666015625,0.2239990234375,3.295898199081421,-7.080077648162842,-8.11767578125,16
1734787673.952074,1.0037841796875,0.14306640625,0.23828125,-3.112792730331421,-5.737304210662842,-4.33349609375,16
1734787674.0731375,0.92919921875,0.0775146484375,0.2564697265625,1.0986328125,4.33349609375,-2.50244140625,16
1734787674.611755,0.92041015625,0.0631103515625,0.2408447265625,-2.50244140625,-2.685546636581421,-4.69970703125,17
1734787674.612665,0.9722900390625,0.11376953125,0.27099609375,-2.563476324081421,-0.4272460639476776,-0.7324218153953552,17
1734787674.6137135,0.9791259765625,0.0943603515625,0.27099609375,-1.8310545682907104,-1.5258787870407104,0.54931640625,17
1734787674.6147454,0.9227294921875,0.072509765625,0.2625732421875,-1.15966796875,0.0,-0.6103515625,17
1734787674.671896,0.987548828125,0.0859375,0.2735595703125,-1.0986328125,0.2441406100988388,-0.9765624403953552,17
1734787674.7921386,0.941650390625,0.0767822265625,0.2620849609375,0.0,2.929687261581421,-0.9765624403953552,17
1734787674.9121125,0.951416015625,0.0703125,0.261962890625,-1.7089842557907104,2.13623046875,-1.2817381620407104,17
1734787675.0324214,0.9486083984375,0.0738525390625,0.2728271484375,-2.3193359375,-0.2441406100988388,-0.8544921278953552,17
1734787675.1528218,0.9666748046875,0.0692138671875,0.2752685546875,-2.990722417831421,3.051757574081421,0.3662109076976776,17
1734787675.272094,0.9539794921875,0.059814453125,0.2584228515625,-2.01416015625,-1.9531248807907104,-2.929687261581421,17
1734787675.3927665,0.915771484375,0.0733642578125,0.242919921875,-3.601073980331421,6.958007335662842,-2.807616949081421,17
1734787675.5119941,0.8798828125,0.075927734375,0.2393798828125,-9.46044921875,13.000487327575684,12.390135765075684,17
1734787675.6320658,0.6265869140625,0.10498046875,0.1229248046875,-17.63916015625,12.329100608825684,22.583005905151367,17
1734787675.7524188,0.5181884765625,0.085205078125,0.0421142578125,-28.259275436401367,25.024412155151367,27.526853561401367,17
1734787675.8725407,0.7528076171875,0.2421875,0.06787109375,-10.009765625,37.2314453125,27.648923873901367,17
1734787675.9325159,1.2115478515625,0.3138427734375,0.0908203125,4.150390625,40.161128997802734,15.686034202575684,17
1734787676.0524862,1.2054443359375,0.3271484375,0.1201171875,5.371093273162842,6.286620616912842,0.0610351525247097,17
1734787676.1717527,1.5655517578125,0.3861083984375,0.0657958984375,5.615233898162842,26.184080123901367,-9.765625,17
1734787676.2923033,1.5084228515625,0.4969482421875,0.016357421875,-7.263183116912842,-2.13623046875,-13.549803733825684,17
1734787676.411825,1.1502685546875,0.314208984375,0.089111328125,-0.0610351525247097,-9.46044921875,2.807616949081421,17
1734787676.532174,1.0146484375,0.2640380859375,0.11962890625,6.591796398162842,-14.526366233825684,-0.9765624403953552,17
1734787676.6529365,0.724365234375,0.1700439453125,0.056884765625,2.624511480331421,2.563476324081421,3.723144292831421,17
1734787676.7724023,0.3729248046875,0.126953125,0.1043701171875,12.634276390075684,-46.447750091552734,-38.330078125,17
1734787676.8923223,0.6531982421875,0.1756591796875,0.08251953125,26.733396530151367,-24.169919967651367,-18.4326171875,17
1734787677.0121026,0.9559326171875,0.0748291015625,0.21875,11.169432640075684,-45.104976654052734,-27.099607467651367,17
1734787677.1327329,1.0400390625,0.1202392578125,0.2569580078125,13.061522483825684,14.587401390075684,3.967284917831421,17
1734787677.2523296,0.89111328125,0.0810546875,0.216064453125,3.784179449081421,-7.812499523162842,-6.408690929412842,17
1734787677.3729308,0.9332275390625,0.088134765625,0.23388671875,-0.54931640625,4.5166015625,1.8920897245407104,17
1734787677.492922,0.9219970703125,0.06787109375,0.2623291015625,-1.8920897245407104,-1.9531248807907104,-3.723144292831421,17
1734787677.6131513,1.003662109375,0.0892333984375,0.2432861328125,0.30517578125,0.0,-4.82177734375,17
1734787678.1203408,0.962158203125,0.05908203125,0.232421875,-1.4038084745407104,-1.03759765625,-1.8310545682907104,18
1734787678.1213408,0.92724609375,0.0555419921875,0.242919921875,-0.9765624403953552,2.197265625,-2.25830078125,18
1734787678.1223397,0.970458984375,0.075927734375,0.258544921875,0.4882812201976776,0.0610351525247097,-1.8920897245407104,18
1734787678.1223397,0.96533203125,0.0501708984375,0.2509765625,-1.3427733182907104,-0.9765624403953552,-2.929687261581421,18
1734787678.211629,0.94970703125,0.054443359375,0.2540283203125,-1.5258787870407104,0.54931640625,-3.173827886581421,18
1734787678.3322203,0.970703125,0.0384521484375,0.255859375,-0.1220703050494194,-3.051757574081421,-2.563476324081421,18
1734787678.4520605,0.959228515625,0.033447265625,0.2442626953125,-0.30517578125,-0.6713866591453552,-2.50244140625,18
1734787678.572425,0.95556640625,0.04638671875,0.259765625,0.7324218153953552,-0.4882812201976776,-0.0610351525247097,18
1734787678.6926143,0.9556884765625,0.0316162109375,0.2493896484375,-1.4038084745407104,0.2441406100988388,1.4038084745407104,18
1734787678.812213,0.961181640625,0.0333251953125,0.2530517578125,-3.967284917831421,-3.295898199081421,0.9765624403953552,18
1734787678.9323566,0.932861328125,0.052734375,0.2489013671875,-3.723144292831421,-0.0610351525247097,2.197265625,18
1734787679.0814505,0.870849609375,0.0816650390625,0.1888427734375,1.5258787870407104,5.249022960662842,15.869139671325684,18
1734787679.17222,0.5433349609375,0.0526123046875,0.148193359375,-9.94873046875,-6.103515148162842,9.21630859375,18
1734787679.3517487,0.5364990234375,0.054443359375,0.1258544921875,-19.4091796875,17.578125,15.991209983825684,18
1734787679.4119158,0.92138671875,0.197021484375,0.1588134765625,-4.5166015625,17.08984375,18.24951171875,18
1734787679.531803,1.10546875,0.211181640625,0.1885986328125,3.784179449081421,16.357421875,13.488768577575684,18
1734787679.6516874,1.5120849609375,0.2918701171875,0.2135009765625,0.0,-1.3427733182907104,-2.38037109375,18
1734787679.7718234,2.068115234375,0.4150390625,0.2186279296875,-5.737304210662842,2.38037109375,0.4882812201976776,18
1734787679.8931806,1.271484375,0.2979736328125,0.23388671875,-6.713866710662842,1.8310545682907104,3.601073980331421,18
1734787680.0123823,1.0830078125,0.28955078125,0.195556640625,-1.4648436307907104,-2.0751953125,0.4272460639476776,18
1734787680.1325085,0.8192138671875,0.1907958984375,0.1622314453125,4.57763671875,4.57763671875,5.615233898162842,18
1734787680.2529833,0.5543212890625,0.103759765625,0.094482421875,0.6103515625,-10.437010765075684,-11.962889671325684,18
1734787680.372633,0.3643798828125,0.066162109375,0.0560302734375,0.9155272841453552,-27.160642623901367,-31.799314498901367,18
1734787680.491944,1.07666015625,0.19677734375,0.205078125,12.878417015075684,18.1884765625,13.061522483825684,18
1734787680.6125689,0.9615478515625,0.0443115234375,0.2059326171875,-3.173827886581421,3.967284917831421,-2.0751953125,18
1734787680.7320032,0.9464111328125,0.1192626953125,0.25146484375,9.27734375,-9.21630859375,-4.150390625,18
1734787680.8526018,0.9149169921875,0.1085205078125,0.2459716796875,8.056640625,-7.995604991912842,-7.568358898162842,18
1734787680.9727447,1.003662109375,0.135498046875,0.2860107421875,4.39453125,0.4272460639476776,-1.4038084745407104,18
1734787681.0921113,0.91796875,0.0889892578125,0.2587890625,5.126952648162842,-0.3662109076976776,-3.601073980331421,18
1734787681.633777,0.966796875,0.070068359375,0.2703857421875,1.2817381620407104,-2.38037109375,-3.479003667831421,19
1734787681.6346705,0.962646484375,0.088623046875,0.2681884765625,0.0,-0.8544921278953552,-2.990722417831421,19
1734787681.6358001,0.9901123046875,0.078369140625,0.2777099609375,1.220703125,1.5869139432907104,-1.5869139432907104,19
1734787681.6358001,0.9512939453125,0.066650390625,0.267578125,-0.6713866591453552,1.8920897245407104,-1.8920897245407104,19
1734787681.692109,0.97998046875,0.0838623046875,0.2803955078125,0.54931640625,-2.624511480331421,-3.295898199081421,19
1734787681.8116827,0.966796875,0.052001953125,0.2789306640625,1.5258787870407104,-4.82177734375,-3.967284917831421,19
1734787681.9320219,0.953125,0.0367431640625,0.28857421875,0.4882812201976776,-1.3427733182907104,-2.868652105331421,19
1734787682.0523083,0.9833984375,0.038330078125,0.2822265625,-1.0986328125,-0.30517578125,-0.3662109076976776,19
1734787682.172448,0.955810546875,0.0416259765625,0.284423828125,0.2441406100988388,-1.9531248807907104,-0.1831054538488388,19
1734787682.2920032,0.927978515625,0.0416259765625,0.2989501953125,3.112792730331421,-1.4648436307907104,-3.295898199081421,19
1734787682.4127672,0.9498291015625,0.0189208984375,0.302734375,-0.9765624403953552,-3.295898199081421,-1.2817381620407104,19
1734787682.5319917,0.9493408203125,0.025390625,0.2900390625,-1.4038084745407104,-1.9531248807907104,-0.0610351525247097,19
1734787682.6525497,0.90185546875,0.0404052734375,0.267333984375,-2.44140625,6.225585460662842,10.742186546325684,19
1734787682.7719703,0.6944580078125,0.0699462890625,0.1884765625,-9.46044921875,7.995604991912842,20.935056686401367,19
1734787682.8921835,0.4715576171875,0.0013427734375,0.14990234375,-26.062009811401367,5.676269054412842,18.310546875,19
1734787683.0120535,0.88818359375,0.177001953125,0.1673583984375,-5.737304210662842,18.98193359375,16.4794921875,19
1734787683.132169,0.9371337890625,0.1668701171875,0.134033203125,6.408690929412842,4.21142578125,17.4560546875,19
1734787683.251805,1.329833984375,0.269775390625,0.24267578125,-0.8544921278953552,1.03759765625,6.530761241912842,19
1734787683.3724864,1.64306640625,0.452880859375,0.3336181640625,-4.82177734375,7.873534679412842,13.427733421325684,19
1734787683.492979,1.4691162109375,0.46630859375,0.3062744140625,-4.45556640625,-6.347655773162842,-8.544921875,19
1734787683.6125183,1.302001953125,0.305908203125,0.2197265625,-4.150390625,7.690429210662842,-5.371093273162842,19
1734787683.7324653,0.9622802734375,0.2618408203125,0.2249755859375,1.5869139432907104,2.990722417831421,-4.57763671875,19
1734787683.8522267,0.7984619140625,0.1544189453125,0.171875,0.1831054538488388,4.45556640625,-2.624511480331421,19
1734787683.9727175,0.294677734375,0.0712890625,0.0640869140625,-4.5166015625,-16.4794921875,-25.817869186401367,19
1734787684.0921216,0.5054931640625,0.0677490234375,0.1123046875,37.109375,-20.629880905151367,-40.588375091552734,19
1734787684.2124212,1.656494140625,0.175537109375,0.1993408203125,0.1220703050494194,-7.385253429412842,-18.9208984375,19
1734787684.3329084,0.9869384765625,0.0816650390625,0.255615234375,2.807616949081421,32.04345703125,8.36181640625,19
1734787684.453067,0.8079833984375,0.0950927734375,0.2237548828125,0.2441406100988388,-10.803221702575684,-5.249022960662842,19
1734787684.5731323,1.000244140625,0.046142578125,0.2093505859375,-0.2441406100988388,-1.9531248807907104,0.54931640625,19
1734787685.1591012,0.9405517578125,0.0799560546875,0.2239990234375,-1.0986328125,-5.737304210662842,-3.601073980331421,20
1734787685.1600983,0.979736328125,0.0589599609375,0.2181396484375,-3.784179449081421,-4.7607421875,-6.469726085662842,20
1734787685.161098,0.9617919921875,0.07080078125,0.244384765625,-0.7934569716453552,5.371093273162842,-6.408690929412842,20
1734787685.161098,0.9532470703125,0.05224609375,0.2435302734375,-2.01416015625,-0.9765624403953552,-6.652831554412842,20
1734787685.1720214,0.9649658203125,0.024658203125,0.2291259765625,-0.3662109076976776,-1.03759765625,-3.967284917831421,20
1734787685.291996,0.985107421875,0.005859375,0.2232666015625,0.3662109076976776,-1.5869139432907104,-4.150390625,20
1734787685.4124646,0.9671630859375,0.022216796875,0.2320556640625,-0.1831054538488388,-3.356933355331421,-2.01416015625,20
1734787685.5326083,0.9705810546875,0.0042724609375,0.244873046875,2.01416015625,-2.685546636581421,-1.4038084745407104,20
1734787685.6525002,0.939453125,-0.0040283203125,0.241943359375,0.30517578125,-2.13623046875,0.1831054538488388,20
1734787685.7720058,0.95361328125,-0.0006103515625,0.250732421875,-0.9765624403953552,-0.0610351525247097,1.7700194120407104,20
1734787685.8921525,0.944580078125,0.005859375,0.236328125,-0.9155272841453552,0.6103515625,4.57763671875,20
1734787686.0115304,0.9029541015625,0.02880859375,0.2105712890625,-6.591796398162842,8.36181640625,11.169432640075684,20
1734787686.1320164,0.4664306640625,0.0618896484375,0.10888671875,-10.314940452575684,-1.4038084745407104,3.051757574081421,20
1734787686.2521758,0.64111328125,0.04345703125,0.0614013671875,-8.97216796875,34.1796875,22.949216842651367,20
1734787686.3716297,0.8695068359375,0.142822265625,0.215087890625,0.9765624403953552,15.808104515075684,26.977537155151367,20
1734787686.4915297,1.19677734375,0.1888427734375,0.2406005859375,11.047362327575684,2.0751953125,11.474608421325684,20
1734787686.6120403,1.4337158203125,0.248046875,0.245849609375,4.33349609375,10.009765625,12.023924827575684,20
1734787686.7319262,1.945068359375,0.380859375,0.2828369140625,3.906249761581421,17.4560546875,0.0610351525247097,20
1734787686.8525043,1.2969970703125,0.292724609375,0.2769775390625,-9.033203125,-11.230467796325684,-7.141112804412842,20
1734787687.0324428,1.1217041015625,0.235595703125,0.2237548828125,-10.803221702575684,-13.732909202575684,-9.09423828125,20
1734787687.0928965,0.900146484375,0.180419921875,0.190185546875,-5.615233898162842,-8.97216796875,-2.13623046875,20
1734787687.2131133,0.6341552734375,0.124267578125,0.131103515625,-1.6479490995407104,-9.82666015625,-5.187987804412842,20
1734787687.33221,0.6419677734375,0.0927734375,0.0865478515625,1.5258787870407104,-34.97314453125,-24.780271530151367,20
1734787687.4526336,0.8426513671875,0.1480712890625,0.22265625,10.131834983825684,-14.892577171325684,-17.76123046875,20
1734787687.5736575,1.201171875,0.181884765625,0.1761474609375,8.4228515625,-6.103515148162842,-9.1552734375,20
1734787687.6920784,1.00830078125,0.0950927734375,0.3447265625,8.36181640625,6.713866710662842,0.1831054538488388,20
1734787687.752008,0.902587890625,0.0579833984375,0.2783203125,5.737304210662842,-1.5258787870407104,1.5258787870407104,20
1734787687.8723025,0.9432373046875,0.0167236328125,0.307861328125,-7.080077648162842,4.5166015625,-1.6479490995407104,20
1734787687.9925532,0.8919677734375,0.07958984375,0.2889404296875,-6.469726085662842,-3.967284917831421,-5.859374523162842,20
1734787688.1126401,0.955810546875,0.0389404296875,0.306396484375,-3.601073980331421,0.8544921278953552,-3.967284917831421,20
1734787688.6708236,0.9495849609375,0.04443359375,0.3001708984375,-6.347655773162842,-0.1831054538488388,-3.601073980331421,21
1734787688.6708236,0.9483642578125,0.0555419921875,0.2833251953125,-2.746581792831421,0.7324218153953552,-2.868652105331421,21
1734787688.6718535,0.9580078125,0.050048828125,0.304931640625,-2.13623046875,-1.220703125,-3.540038824081421,21
1734787688.6718535,0.957763671875,0.0281982421875,0.290283203125,-1.4648436307907104,-2.25830078125,-4.57763671875,21
1734787688.7121127,0.9482421875,0.024658203125,0.2940673828125,-1.4038084745407104,-0.54931640625,-4.82177734375,21
1734787688.8315468,0.9248046875,0.0377197265625,0.2840576171875,0.6103515625,4.45556640625,-2.44140625,21
1734787688.9520726,0.961181640625,0.031982421875,0.3109130859375,0.2441406100988388,2.807616949081421,0.4272460639476776,21
1734787689.0720482,0.978759765625,0.017333984375,0.2928466796875,-0.3662109076976776,-3.479003667831421,0.4272460639476776,21
1734787689.1922913,0.962646484375,0.0079345703125,0.287353515625,1.7700194120407104,-2.624511480331421,0.6103515625,21
1734787689.3116188,0.9564208984375,0.0084228515625,0.29736328125,-0.54931640625,0.4882812201976776,0.7934569716453552,21
1734787689.431389,0.874755859375,0.046142578125,0.2864990234375,-1.9531248807907104,7.019042491912842,8.1787109375,21
1734787689.5512698,0.68310546875,0.0697021484375,0.151611328125,5.798339366912842,-16.11328125,25.024412155151367,21
1734787689.672125,0.462890625,-0.010986328125,0.138671875,-15.319823265075684,17.9443359375,22.888181686401367,21
1734787689.791912,0.938232421875,0.175048828125,0.2064208984375,3.051757574081421,12.939452171325684,12.451170921325684,21
1734787689.911864,1.001953125,0.179443359375,0.275146484375,6.103515148162842,3.173827886581421,13.427733421325684,21
1734787690.0311978,1.15576171875,0.189453125,0.3477783203125,8.30078125,-5.0048828125,6.469726085662842,21
1734787690.1522732,1.658447265625,0.3131103515625,0.402099609375,-5.798339366912842,14.404295921325684,-1.220703125,21
1734787690.272335,1.55859375,0.38134765625,0.3731689453125,-16.6015625,-25.573728561401367,-9.94873046875,21
1734787690.3922207,1.229248046875,0.3138427734375,0.3450927734375,-11.413573265075684,15.319823265075684,6.713866710662842,21
1734787690.5119276,0.921630859375,0.206298828125,0.280029296875,10.620116233825684,3.601073980331421,3.967284917831421,21
1734787690.6320314,0.751953125,0.133544921875,0.1915283203125,6.164550304412842,9.09423828125,0.8544921278953552,21
1734787690.7527142,0.45751953125,0.10986328125,0.1048583984375,1.5258787870407104,-7.873534679412842,-6.164550304412842,21
1734787690.8726692,0.6099853515625,0.11962890625,0.1397705078125,14.099120140075684,-14.099120140075684,5.737304210662842,21
1734787690.992806,0.8856201171875,-0.0013427734375,0.173095703125,22.216794967651367,-7.141112804412842,-14.038084983825684,21
1734787691.1130905,0.83203125,0.1265869140625,0.2950439453125,2.25830078125,-3.601073980331421,-7.629394054412842,21
1734787691.2472787,0.918701171875,0.0670166015625,0.284423828125,0.1831054538488388,-4.82177734375,-9.33837890625,21
1734787691.3525302,0.871337890625,0.142578125,0.263427734375,-2.0751953125,-1.8310545682907104,-4.08935546875,21
1734787691.4728265,0.93212890625,0.11279296875,0.2799072265625,-2.38037109375,2.3193359375,-2.3193359375,21
1734787691.5924988,0.951904296875,0.08203125,0.2667236328125,-3.112792730331421,-2.50244140625,-3.601073980331421,21
1734787692.197553,0.935302734375,0.097900390625,0.27099609375,-3.540038824081421,-2.38037109375,-3.356933355331421,22
1734787692.1987736,0.9794921875,0.09326171875,0.2735595703125,-0.4272460639476776,-2.0751953125,-2.25830078125,22
1734787692.199474,0.9954833984375,0.08740234375,0.2828369140625,-1.03759765625,-2.3193359375,-2.197265625,22
1734787692.199974,0.9486083984375,0.06396484375,0.27880859375,1.220703125,0.4272460639476776,-1.6479490995407104,22
1734787692.2005615,0.9468994140625,0.0634765625,0.2742919921875,-1.8310545682907104,-0.4272460639476776,-2.624511480331421,22
1734787692.311979,0.9561767578125,0.058349609375,0.2677001953125,-1.3427733182907104,1.7089842557907104,-0.9155272841453552,22
1734787692.4319828,0.9547119140625,0.0584716796875,0.2689208984375,-3.723144292831421,3.234863042831421,0.54931640625,22
1734787692.5522623,0.99072265625,0.06396484375,0.273193359375,-7.690429210662842,2.50244140625,0.9765624403953552,22
1734787692.6719396,0.96142578125,0.080810546875,0.2713623046875,-3.662109136581421,0.9155272841453552,1.15966796875,22
1734787692.792016,0.9603271484375,0.0633544921875,0.2540283203125,0.7934569716453552,0.6713866591453552,2.197265625,22
1734787692.9120667,0.951416015625,0.0816650390625,0.2667236328125,-0.1831054538488388,0.6713866591453552,3.662109136581421,22
1734787693.0323884,0.9443359375,0.10791015625,0.270751953125,0.4272460639476776,2.929687261581421,5.920409679412842,22
1734787693.1517494,0.790771484375,0.08642578125,0.2073974609375,-0.4882812201976776,7.507323741912842,11.291502952575684,22
1734787693.2727482,0.365234375,0.032470703125,0.0906982421875,-14.404295921325684,-1.5869139432907104,0.7324218153953552,22
1734787693.3925018,0.6549072265625,0.1131591796875,0.1175537109375,-13.977049827575684,19.53125,11.047362327575684,22
1734787693.513065,0.9920654296875,0.267333984375,0.206787109375,-2.807616949081421,23.742673873901367,24.719236373901367,22
1734787693.6315289,1.1612548828125,0.2415771484375,0.2509765625,5.371093273162842,7.141112804412842,8.60595703125,22
1734787693.752073,1.51220703125,0.2056884765625,0.167236328125,11.108397483825684,9.6435546875,-21.179197311401367,22
1734787693.8714962,1.8294677734375,0.4495849609375,0.316162109375,4.21142578125,2.746581792831421,8.1787109375,22
1734787693.992092,1.2042236328125,0.201416015625,0.1837158203125,-6.286620616912842,-2.0751953125,1.8310545682907104,22
1734787694.1122673,0.991455078125,0.208251953125,0.2166748046875,-9.46044921875,-3.051757574081421,-7.202147960662842,22
1734787694.2318268,0.9063720703125,0.1865234375,0.2052001953125,2.25830078125,17.15087890625,5.371093273162842,22
1734787694.351804,0.6759033203125,0.1019287109375,0.1138916015625,4.39453125,21.606443405151367,7.080077648162842,22
1734787694.4719918,0.3641357421875,0.0150146484375,0.0648193359375,-8.6669921875,-25.512693405151367,-34.1796875,22
1734787694.5924833,0.64990234375,0.146240234375,0.1741943359375,7.995604991912842,48.095699310302734,18.49365234375,22
1734787694.7123275,0.84375,0.0439453125,0.1162109375,-9.27734375,-50.720211029052734,-19.59228515625,22
1734787694.8324883,1.0906982421875,0.1611328125,0.1829833984375,16.05224609375,-9.765625,-7.080077648162842,22
1734787694.9519858,0.9088134765625,0.0831298828125,0.1474609375,5.737304210662842,-3.845214605331421,1.5258787870407104,22
1734787695.0719044,0.9530029296875,0.082275390625,0.1964111328125,0.1220703050494194,-1.15966796875,-0.4272460639476776,22
1734787695.1919432,0.94189453125,0.0509033203125,0.1793212890625,-4.150390625,-1.220703125,-2.13623046875,22
1734787695.6963117,0.970458984375,0.083251953125,0.2025146484375,-5.798339366912842,3.967284917831421,-3.845214605331421,23
1734787695.6968007,0.9576416015625,0.074951171875,0.16015625,-5.737304210662842,0.1220703050494194,-2.746581792831421,23
1734787695.6972945,0.9974365234375,0.0738525390625,0.1517333984375,-0.6103515625,2.197265625,-2.38037109375,23
1734787695.698301,0.94873046875,0.0809326171875,0.155517578125,1.3427733182907104,3.723144292831421,0.3662109076976776,23
1734787695.7917597,0.96044921875,0.0706787109375,0.1697998046875,3.784179449081421,-0.9155272841453552,-0.7324218153953552,23
1734787695.9115667,0.98486328125,0.0596923828125,0.1568603515625,1.15966796875,-1.4648436307907104,-0.6713866591453552,23
1734787696.03143,0.97314453125,0.060791015625,0.1673583984375,-0.6713866591453552,-1.2817381620407104,-0.9765624403953552,23
1734787696.1518764,0.9677734375,0.0592041015625,0.1671142578125,0.6103515625,0.7934569716453552,-0.9155272841453552,23
1734787696.2731543,0.9693603515625,0.0655517578125,0.16259765625,0.2441406100988388,0.7934569716453552,1.15966796875,23
1734787696.4515789,0.950439453125,0.06982421875,0.1558837890625,2.44140625,5.615233898162842,6.042479991912842,23
1734787696.5119982,0.7388916015625,0.091064453125,0.1029052734375,-1.4038084745407104,10.437010765075684,13.427733421325684,23
1734787696.6914287,0.4208984375,0.0433349609375,0.0799560546875,-6.347655773162842,-5.798339366912842,7.873534679412842,23
1734787696.7521818,0.8948974609375,0.0731201171875,0.1558837890625,11.291502952575684,-16.54052734375,11.230467796325684,23
1734787696.8721175,0.978271484375,0.13134765625,0.1279296875,-3.112792730331421,-5.065917491912842,10.803221702575684,23
1734787696.9919412,1.3953857421875,0.21337890625,0.204833984375,0.6103515625,-0.9155272841453552,1.4648436307907104,23
1734787697.1120768,1.48193359375,0.1563720703125,0.2144775390625,-6.164550304412842,24.780271530151367,8.72802734375,23
1734787697.2321875,1.833984375,0.4364013671875,0.2366943359375,6.225585460662842,5.249022960662842,10.070799827575684,23
1734787697.352402,1.3916015625,0.219970703125,0.20166015625,-3.234863042831421,-9.8876953125,5.432128429412842,23
1734787697.4725091,1.0777587890625,0.22021484375,0.18798828125,1.03759765625,-3.356933355331421,-3.662109136581421,23
1734787697.592767,0.8515625,0.1680908203125,0.174560546875,2.25830078125,19.8974609375,-2.624511480331421,23
1734787697.7723625,0.5672607421875,0.0931396484375,0.0732421875,1.4038084745407104,3.540038824081421,2.0751953125,23
1734787697.8319702,0.4786376953125,0.14453125,0.083740234375,4.0283203125,-34.85107421875,-27.526853561401367,23
1734787697.95223,0.93701171875,0.142578125,0.076416015625,20.080564498901367,-1.15966796875,-3.234863042831421,23
1734787698.07266,0.8179931640625,0.0819091796875,0.1529541015625,-11.779784202575684,-14.770506858825684,-18.73779296875,23
1734787698.1919835,1.10693359375,0.07080078125,0.1890869140625,0.4272460639476776,3.662109136581421,-13.244627952575684,23
1734787698.3124363,0.98828125,0.056884765625,0.18505859375,-5.676269054412842,-4.39453125,-7.202147960662842,23
1734787698.4323585,0.942138671875,0.03759765625,0.197509765625,-5.554198741912842,-3.173827886581421,-6.286620616912842,23
1734787698.5526166,0.941650390625,0.021728515625,0.2227783203125,-2.807616949081421,-6.347655773162842,-5.187987804412842,23
1734787698.6719894,0.935302734375,0.0289306640625,0.1944580078125,-0.7324218153953552,-3.417968511581421,-2.50244140625,23
1734787699.2131715,0.991455078125,0.009033203125,0.1888427734375,1.7089842557907104,2.624511480331421,0.2441406100988388,24
1734787699.2141051,0.916015625,0.0185546875,0.2132568359375,-2.929687261581421,1.0986328125,-0.2441406100988388,24
1734787699.2151475,0.9654541015625,0.033203125,0.1829833984375,0.1831054538488388,-2.38037109375,-0.9155272841453552,24
1734787699.2153516,0.97021484375,0.006103515625,0.2138671875,1.8310545682907104,-0.6103515625,-0.7934569716453552,24
1734787699.2716248,0.9698486328125,0.0093994140625,0.2022705078125,0.3662109076976776,-2.0751953125,-0.0610351525247097,24
1734787699.3920527,0.9794921875,0.0128173828125,0.2047119140625,-1.220703125,-0.8544921278953552,1.8920897245407104,24
1734787699.511691,0.9801025390625,0.02099609375,0.2098388671875,0.54931640625,1.6479490995407104,3.417968511581421,24
1734787699.6324682,0.96484375,0.0191650390625,0.2132568359375,0.8544921278953552,5.371093273162842,4.2724609375,24
1734787699.7525928,0.9261474609375,0.032470703125,0.1812744140625,-1.8920897245407104,7.324218273162842,9.70458984375,24
1734787699.8721676,0.654541015625,0.065185546875,0.1180419921875,-12.573241233825684,3.356933355331421,9.09423828125,24
1734787699.9917307,0.6361083984375,0.1016845703125,0.0810546875,-1.8920897245407104,-8.7890625,16.78466796875,24
1734787700.1119523,0.55615234375,0.0491943359375,0.06982421875,-3.234863042831421,11.901854515075684,15.747069358825684,24
1734787700.2319434,0.9647216796875,0.1563720703125,0.131103515625,4.2724609375,-0.4882812201976776,2.13623046875,24
1734787700.3522637,1.174072265625,0.14697265625,0.281982421875,5.859374523162842,10.070799827575684,3.845214605331421,24
1734787700.4713376,1.5467529296875,0.1917724609375,0.3311767578125,-4.5166015625,-0.1831054538488388,-7.080077648162842,24
1734787700.5922027,1.704833984375,0.3421630859375,0.2723388671875,-5.676269054412842,-50.537105560302734,-11.169432640075684,24
1734787700.7111611,1.213134765625,0.1890869140625,0.2601318359375,-5.920409679412842,19.71435546875,18.798828125,24
1734787700.8322432,0.9649658203125,0.1995849609375,0.227783203125,3.479003667831421,12.084959983825684,8.056640625,24
1734787700.9517317,0.77783203125,0.153076171875,0.2027587890625,3.967284917831421,-5.981444835662842,4.33349609375,24
1734787701.072081,0.646240234375,0.1502685546875,0.115966796875,0.4272460639476776,16.29638671875,0.7324218153953552,24
1734787701.1922944,0.55517578125,0.0706787109375,0.11181640625,9.765625,-49.804683685302734,-36.1328125,24
1734787701.3129463,1.241455078125,0.416748046875,0.1357421875,11.718749046325684,26.184080123901367,2.25830078125,24
1734787701.432489,0.8568115234375,0.104248046875,0.2093505859375,-7.263183116912842,16.11328125,2.990722417831421,24
1734787701.5523689,1.05029296875,0.0814208984375,0.2135009765625,6.103515148162842,16.29638671875,14.099120140075684,24
1734787701.671742,0.8916015625,0.1180419921875,0.298828125,-2.990722417831421,-5.249022960662842,-1.8310545682907104,24
1734787701.7927725,1.1212158203125,0.165771484375,0.1995849609375,-16.66259765625,-14.831542015075684,-12.023924827575684,24
1734787701.9125304,1.0552978515625,0.2320556640625,0.1895751953125,-4.69970703125,0.9155272841453552,0.9155272841453552,24
1734787702.032144,0.9249267578125,0.1573486328125,0.2335205078125,-0.4272460639476776,3.845214605331421,-0.54931640625,24
1734787702.1521587,0.9508056640625,0.156982421875,0.234619140625,-1.4648436307907104,-4.45556640625,-2.38037109375,24
1734787702.726683,0.95751953125,0.1416015625,0.2447509765625,-1.0986328125,-6.286620616912842,-4.57763671875,25
1734787702.7276826,0.950439453125,0.134033203125,0.2364501953125,-1.15966796875,6.469726085662842,-2.197265625,25
1734787702.7287073,0.96826171875,0.117919921875,0.2608642578125,-6.225585460662842,-1.5869139432907104,-1.6479490995407104,25
1734787702.7298098,0.9366455078125,0.13916015625,0.2232666015625,-3.662109136581421,-2.25830078125,-3.662109136581421,25
1734787702.7308095,0.9666748046875,0.108642578125,0.250732421875,0.4882812201976776,5.187987804412842,-0.54931640625,25
1734787702.8114297,0.9661865234375,0.135498046875,0.2379150390625,-3.234863042831421,-3.540038824081421,-1.9531248807907104,25
1734787702.9313033,0.928466796875,0.116455078125,0.2391357421875,4.39453125,2.38037109375,0.2441406100988388,25
1734787703.051831,0.9742431640625,0.1171875,0.2587890625,2.3193359375,-2.50244140625,-2.197265625,25
1734787703.1725996,0.9171142578125,0.085693359375,0.246826171875,5.371093273162842,-1.15966796875,-2.50244140625,25
1734787703.292383,0.9564208984375,0.09912109375,0.2474365234375,0.9765624403953552,0.1220703050494194,-2.990722417831421,25
1734787703.4116998,0.932373046875,0.0616455078125,0.2451171875,10.131834983825684,-1.15966796875,-7.812499523162842,25
1734787703.531249,0.9124755859375,0.047119140625,0.203369140625,-2.25830078125,8.23974609375,0.2441406100988388,25
1734787703.6513097,0.64599609375,0.0850830078125,0.1494140625,-17.88330078125,8.1787109375,8.1787109375,25
1734787703.771477,0.5615234375,0.156982421875,0.1392822265625,-6.835937023162842,10.742186546325684,17.08984375,25
1734787703.8914704,0.843017578125,0.2034912109375,0.1531982421875,0.3662109076976776,24.291990280151367,33.69140625,25
1734787704.012173,0.8990478515625,0.1314697265625,0.177001953125,5.554198741912842,12.512206077575684,22.644041061401367,25
1734787704.1322544,1.0731201171875,0.2601318359375,0.1988525390625,5.065917491912842,3.662109136581421,5.371093273162842,25
1734787704.2515473,1.266357421875,0.3310546875,0.233642578125,-13.061522483825684,-0.1220703050494194,-0.7934569716453552,25
1734787704.4321275,1.76025390625,0.4708251953125,0.228759765625,-12.878417015075684,-0.8544921278953552,-11.352538108825684,25
