Timestamp,Accel X,Accel Y,Accel Z,Gyro X,Gyro Y,Gyro Z,Start Flag
1734786540.7766876,-0.9508056640625,-0.408935546875,0.227783203125,-8.23974609375,0.8544921278953552,-2.44140625,0
1734786541.2921174,-0.816650390625,-0.37451171875,0.2431640625,0.7324218153953552,-4.39453125,-2.0751953125,0
1734786541.2926154,-0.9486083984375,-0.405517578125,0.227783203125,5.310058116912842,2.44140625,1.220703125,0
1734786541.293628,-0.8502197265625,-0.3919677734375,0.219970703125,7.690429210662842,-5.065917491912842,-2.0751953125,0
1734786541.294129,-0.852783203125,-0.401611328125,0.1885986328125,6.652831554412842,-4.94384765625,-4.33349609375,0
1734786541.3750834,-0.8968505859375,-0.42236328125,0.1953125,1.2817381620407104,-1.6479490995407104,-3.112792730331421,0
1734786541.4951446,-0.870361328125,-0.39990234375,0.1881103515625,-0.9155272841453552,-0.7934569716453552,-0.4272460639476776,0
1734786541.6181512,-0.8988037109375,-0.3790283203125,0.1807861328125,-2.3193359375,-2.38037109375,-2.868652105331421,0
1734786541.7352722,-0.897216796875,-0.388671875,0.1981201171875,-0.6103515625,0.8544921278953552,-0.3662109076976776,0
1734786541.8551512,-0.895263671875,-0.3724365234375,0.1756591796875,-0.30517578125,3.234863042831421,1.5258787870407104,0
1734786541.9750528,-0.8919677734375,-0.3856201171875,0.177490234375,-0.4272460639476776,-2.01416015625,0.7934569716453552,0
1734786542.0952015,-0.9183349609375,-0.4000244140625,0.1727294921875,0.6713866591453552,-5.859374523162842,1.8920897245407104,0
1734786542.2149417,-0.895263671875,-0.397216796875,0.1710205078125,-0.4272460639476776,-1.8310545682907104,1.8310545682907104,0
1734786542.3352067,-0.8902587890625,-0.3968505859375,0.1683349609375,-0.6713866591453552,-1.0986328125,2.0751953125,0
1734786542.454808,-0.804443359375,-0.36962890625,0.1590576171875,-0.7324218153953552,-4.57763671875,-7.263183116912842,0
1734786542.574719,-0.652099609375,-0.30126953125,0.1121826171875,-2.685546636581421,-5.187987804412842,-10.314940452575684,0
1734786542.6983402,-0.5704345703125,-0.272216796875,0.1156005859375,-4.8828125,38.02490234375,-7.690429210662842,0
1734786542.8193314,-0.72021484375,-0.3013916015625,0.1617431640625,8.6669921875,-28.198240280151367,-8.97216796875,0
1734786542.9385762,-0.9698486328125,-0.3643798828125,0.107421875,-2.746581792831421,-4.638671875,-5.920409679412842,0
1734786543.0551176,-1.0797119140625,-0.33349609375,0.117919921875,-4.69970703125,2.44140625,-1.0986328125,0
1734786543.1750746,-1.2052001953125,-0.3365478515625,0.159912109375,-3.784179449081421,24.353025436401367,-1.3427733182907104,0
1734786543.2947147,-1.175048828125,-0.39306640625,0.3895263671875,1.5869139432907104,0.2441406100988388,6.286620616912842,0
1734786543.414884,-1.3902587890625,-0.4520263671875,0.3056640625,5.126952648162842,15.808104515075684,-1.220703125,0
1734786543.5350974,-1.1646728515625,-0.3800048828125,0.2703857421875,-0.9765624403953552,-5.920409679412842,1.6479490995407104,0
1734786543.6555953,-0.9486083984375,-0.3818359375,0.2088623046875,-4.2724609375,7.141112804412842,3.173827886581421,0
1734786543.7751026,-0.8131103515625,-0.347900390625,0.1690673828125,0.2441406100988388,-5.554198741912842,4.69970703125,0
1734786543.8949597,-0.703125,-0.296630859375,0.11181640625,-2.25830078125,-0.9765624403953552,4.0283203125,0
1734786544.01504,-0.6544189453125,-0.2862548828125,0.1268310546875,-4.8828125,0.1831054538488388,0.0610351525247097,0
1734786544.1353161,-0.63330078125,-0.29736328125,0.1505126953125,-5.920409679412842,7.263183116912842,7.690429210662842,0
1734786544.2559536,-0.9453125,-0.4007568359375,0.1693115234375,9.8876953125,-20.690916061401367,-6.347655773162842,0
1734786544.8248982,-0.7698974609375,-0.34521484375,0.2242431640625,-2.197265625,-11.840819358825684,1.6479490995407104,1
1734786544.8257346,-0.9654541015625,-0.349853515625,0.1343994140625,-4.8828125,12.634276390075684,-0.3662109076976776,1
1734786544.826234,-0.9320068359375,-0.3712158203125,0.1644287109375,-4.0283203125,-0.30517578125,1.03759765625,1
1734786544.8267338,-0.9088134765625,-0.3634033203125,0.1512451171875,-0.3662109076976776,0.6713866591453552,-0.0610351525247097,1
1734786544.8551006,-0.8812255859375,-0.37158203125,0.1702880859375,-0.4272460639476776,-15.075682640075684,-1.6479490995407104,1
1734786544.974579,-0.919921875,-0.3721923828125,0.1539306640625,-3.356933355331421,-2.624511480331421,0.0,1
1734786545.0950403,-0.90771484375,-0.3790283203125,0.1444091796875,-2.0751953125,-0.7324218153953552,1.5258787870407104,1
1734786545.2148042,-0.8739013671875,-0.3599853515625,0.163330078125,-4.150390625,3.845214605331421,0.8544921278953552,1
1734786545.3350122,-0.9141845703125,-0.3583984375,0.1484375,-8.7890625,-0.30517578125,-0.54931640625,1
1734786545.4548998,-0.9351806640625,-0.3494873046875,0.1488037109375,-5.432128429412842,-4.150390625,2.563476324081421,1
1734786545.5747597,-0.8905029296875,-0.35205078125,0.1524658203125,-1.7700194120407104,1.3427733182907104,3.540038824081421,1
1734786545.6943686,-0.9130859375,-0.35986328125,0.15234375,1.9531248807907104,-0.30517578125,1.2817381620407104,1
1734786545.815132,-0.8458251953125,-0.3712158203125,0.1357421875,1.9531248807907104,-2.3193359375,-7.019042491912842,1
1734786545.934976,-0.7200927734375,-0.29638671875,0.1158447265625,2.929687261581421,-10.681151390075684,-9.94873046875,1
1734786546.0550964,-0.654296875,-0.2257080078125,0.0770263671875,-0.6713866591453552,-15.808104515075684,-15.014647483825684,1
1734786546.1748276,-0.727783203125,-0.2431640625,0.102783203125,6.286620616912842,-16.4794921875,-16.66259765625,1
1734786546.2950778,-0.8682861328125,-0.220703125,0.0404052734375,8.6669921875,-14.648436546325684,-14.465331077575684,1
1734786546.414895,-1.1282958984375,-0.2572021484375,0.00146484375,15.197752952575684,-9.1552734375,-17.51708984375,1
1734786546.5345607,-1.0352783203125,-0.26318359375,0.0406494140625,3.845214605331421,-0.4272460639476776,-2.197265625,1
1734786546.6544507,-1.3743896484375,-0.32861328125,-0.0107421875,-3.845214605331421,14.343260765075684,36.2548828125,1
1734786546.7750456,-1.419677734375,-0.354248046875,0.060791015625,-5.249022960662842,28.442380905151367,9.3994140625,1
1734786546.8951313,-1.1961669921875,-0.3074951171875,0.081298828125,-12.329100608825684,7.263183116912842,2.3193359375,1
1734786547.0143585,-1.0855712890625,-0.279541015625,0.1075439453125,-3.173827886581421,0.1220703050494194,3.417968511581421,1
1734786547.1348636,-0.9345703125,-0.25537109375,0.1219482421875,-1.8920897245407104,-6.652831554412842,1.9531248807907104,1
1734786547.2554564,-0.7548828125,-0.2313232421875,0.0858154296875,-1.4648436307907104,-5.798339366912842,-2.0751953125,1
1734786547.3749375,-0.6922607421875,-0.1632080078125,0.00830078125,-19.22607421875,35.21728515625,18.310546875,1
1734786547.495858,-0.6087646484375,-0.1688232421875,0.2474365234375,-4.82177734375,12.145995140075684,0.1831054538488388,1
1734786547.61458,-0.896728515625,-0.3291015625,0.22265625,-4.39453125,21.118162155151367,9.94873046875,1
1734786547.735065,-0.9837646484375,-0.27880859375,0.2203369140625,6.042479991912842,-3.540038824081421,4.8828125,1
1734786548.3499064,-0.8785400390625,-0.3397216796875,0.219482421875,8.4228515625,1.0986328125,10.498045921325684,2
1734786548.3509073,-0.822021484375,-0.3541259765625,0.2108154296875,5.249022960662842,-4.33349609375,14.343260765075684,2
1734786548.3515155,-0.9136962890625,-0.342041015625,0.196044921875,5.371093273162842,-7.873534679412842,-2.0751953125,2
1734786548.3520136,-0.8643798828125,-0.4029541015625,0.1307373046875,4.0283203125,-8.1787109375,7.629394054412842,2
1734786548.3525133,-0.853515625,-0.4027099609375,0.1864013671875,10.925292015075684,0.4882812201976776,6.713866710662842,2
1734786548.4549956,-0.8980712890625,-0.4151611328125,0.1422119140625,8.48388671875,-3.601073980331421,6.225585460662842,2
1734786548.5747018,-0.851806640625,-0.42919921875,0.1767578125,8.97216796875,-0.2441406100988388,4.2724609375,2
1734786548.6950324,-0.9063720703125,-0.426513671875,0.17041015625,0.6103515625,8.6669921875,0.54931640625,2
1734786548.8146262,-0.86376953125,-0.4287109375,0.1563720703125,2.38037109375,6.896972179412842,-1.0986328125,2
1734786548.9351103,-0.86962890625,-0.4393310546875,0.159423828125,0.1831054538488388,0.0610351525247097,-1.3427733182907104,2
1734786549.0544837,-0.882568359375,-0.427734375,0.1583251953125,-0.54931640625,1.2817381620407104,-0.54931640625,2
1734786549.1748142,-0.888427734375,-0.4298095703125,0.159912109375,-1.220703125,-0.6713866591453552,0.7324218153953552,2
1734786549.2949193,-0.8470458984375,-0.4298095703125,0.164794921875,-1.5869139432907104,-3.173827886581421,-0.30517578125,2
1734786549.417686,-0.796142578125,-0.3983154296875,0.154052734375,-0.8544921278953552,-8.9111328125,-9.94873046875,2
1734786549.5349853,-0.6422119140625,-0.2984619140625,0.09033203125,-8.72802734375,-14.038084983825684,-14.709471702575684,2
1734786549.6544893,-0.610107421875,-0.2552490234375,0.0806884765625,-10.864256858825684,-11.474608421325684,-17.578125,2
1734786549.774758,-0.8609619140625,-0.3143310546875,0.07080078125,2.25830078125,-18.1884765625,-16.357421875,2
1734786549.8949842,-0.9251708984375,-0.3143310546875,0.0828857421875,3.967284917831421,3.173827886581421,-6.164550304412842,2
1734786550.0148973,-1.07177734375,-0.3162841796875,0.0523681640625,9.3994140625,-2.807616949081421,-6.652831554412842,2
1734786550.1350539,-1.107666015625,-0.33251953125,0.150146484375,4.5166015625,-4.69970703125,-3.540038824081421,2
1734786550.2547812,-1.0965576171875,-0.339111328125,0.19873046875,2.50244140625,27.648923873901367,3.173827886581421,2
1734786550.3749793,-1.4298095703125,-0.4520263671875,0.1627197265625,6.164550304412842,-7.507323741912842,-4.33349609375,2
1734786550.49484,-1.15576171875,-0.4168701171875,0.1983642578125,-10.437010765075684,11.901854515075684,10.498045921325684,2
1734786550.6160076,-1.08740234375,-0.339111328125,0.155029296875,-12.817381858825684,-8.544921875,2.01416015625,2
1734786550.7349,-1.0042724609375,-0.330322265625,0.1455078125,-8.72802734375,-10.742186546325684,-0.8544921278953552,2
1734786550.8550596,-0.6962890625,-0.27880859375,0.159912109375,-0.30517578125,-20.141599655151367,-20.751951217651367,2
1734786550.9751096,-0.77783203125,-0.1502685546875,-0.0006103515625,-4.150390625,-13.244627952575684,-1.0986328125,2
1734786551.0949147,-0.5072021484375,-0.186767578125,0.08349609375,-13.854979515075684,31.127927780151367,22.338865280151367,2
1734786551.2146497,-1.0040283203125,-0.2408447265625,0.08837890625,6.164550304412842,-22.338865280151367,-11.779784202575684,2
1734786551.3349884,-0.7772216796875,-0.2899169921875,0.1422119140625,1.7089842557907104,10.437010765075684,3.845214605331421,2
1734786551.8464446,-1.0198974609375,-0.270751953125,0.1512451171875,8.544921875,-2.01416015625,4.39453125,3
1734786551.8469443,-0.910888671875,-0.3206787109375,0.1705322265625,6.042479991912842,3.173827886581421,3.417968511581421,3
1734786551.8476064,-0.9281005859375,-0.32421875,0.153076171875,4.94384765625,-0.9765624403953552,3.906249761581421,3
1734786551.8482497,-0.8857421875,-0.317626953125,0.1431884765625,2.868652105331421,-4.57763671875,0.6713866591453552,3
1734786551.9350314,-0.9620361328125,-0.318115234375,0.1181640625,3.784179449081421,-6.225585460662842,-0.30517578125,3
1734786552.0558395,-0.8948974609375,-0.3328857421875,0.1246337890625,1.2817381620407104,1.5258787870407104,0.2441406100988388,3
1734786552.175039,-0.92236328125,-0.3287353515625,0.1119384765625,2.990722417831421,-1.7700194120407104,2.624511480331421,3
1734786552.2950182,-0.9569091796875,-0.334228515625,0.1077880859375,0.3662109076976776,-1.7089842557907104,2.50244140625,3
1734786552.4153237,-0.9320068359375,-0.345458984375,0.1046142578125,-2.746581792831421,2.44140625,2.624511480331421,3
1734786552.535217,-0.908447265625,-0.3328857421875,0.108642578125,2.563476324081421,-0.3662109076976776,1.6479490995407104,3
1734786552.6552148,-0.9302978515625,-0.3466796875,0.109130859375,-0.0610351525247097,1.0986328125,1.8920897245407104,3
1734786552.7752767,-0.9149169921875,-0.35400390625,0.1142578125,-4.57763671875,0.8544921278953552,1.9531248807907104,3
1734786552.8949375,-0.8963623046875,-0.3369140625,0.10888671875,-5.676269054412842,-2.01416015625,0.0610351525247097,3
1734786553.0149062,-0.864501953125,-0.2989501953125,0.092041015625,0.6713866591453552,-8.4228515625,-13.000487327575684,3
1734786553.1347327,-0.657470703125,-0.1910400390625,0.0604248046875,-1.220703125,-7.873534679412842,-9.58251953125,3
1734786553.2548032,-0.8609619140625,-0.2337646484375,-0.0006103515625,9.33837890625,-5.798339366912842,-29.174802780151367,3
1734786553.374881,-0.81201171875,-0.2235107421875,0.166015625,3.662109136581421,5.371093273162842,-2.50244140625,3
1734786553.4947965,-1.1158447265625,-0.2607421875,0.0076904296875,-8.36181640625,20.935056686401367,-2.01416015625,3
1734786553.6146483,-0.9061279296875,-0.248046875,0.2313232421875,-11.047362327575684,15.380858421325684,4.638671875,3
1734786553.734922,-1.1826171875,-0.3133544921875,0.211669921875,-12.023924827575684,20.202634811401367,9.6435546875,3
1734786553.8544884,-1.112548828125,-0.2647705078125,0.3028564453125,3.173827886581421,-2.685546636581421,-6.591796398162842,3
1734786553.9750915,-1.3984375,-0.4317626953125,0.291748046875,12.817381858825684,21.545408248901367,4.5166015625,3
1734786554.0952559,-1.2099609375,-0.3787841796875,0.270751953125,0.9765624403953552,14.343260765075684,7.568358898162842,3
1734786554.2152104,-1.006103515625,-0.3115234375,0.2867431640625,-5.371093273162842,-20.263669967651367,-2.44140625,3
1734786554.3343947,-0.921142578125,-0.3216552734375,0.2281494140625,-3.662109136581421,-13.366698265075684,-2.807616949081421,3
1734786554.4552796,-0.793701171875,-0.2708740234375,0.2125244140625,1.15966796875,-25.695798873901367,-8.6669921875,3
1734786554.5749793,-0.6689453125,-0.1834716796875,0.0704345703125,11.962889671325684,-23.681638717651367,-21.057126998901367,3
1734786554.6953235,-0.583251953125,-0.187255859375,0.0638427734375,0.1831054538488388,37.4755859375,26.428220748901367,3
1734786554.8151224,-0.8797607421875,-0.27880859375,0.2054443359375,15.075682640075684,-16.6015625,-11.779784202575684,3
1734786555.3699603,-0.807861328125,-0.2742919921875,0.2413330078125,-3.173827886581421,38.87939453125,14.892577171325684,4
1734786555.3721006,-1.0484619140625,-0.2576904296875,0.1632080078125,1.7089842557907104,-1.5258787870407104,-0.3662109076976776,4
1734786555.3741999,-0.8902587890625,-0.2998046875,0.196533203125,-0.0610351525247097,-1.0986328125,-0.4882812201976776,4
1734786555.376214,-0.9114990234375,-0.2999267578125,0.1646728515625,-5.920409679412842,2.0751953125,-2.44140625,4
1734786555.4145522,-0.9276123046875,-0.2723388671875,0.1610107421875,-8.97216796875,-13.427733421325684,-4.39453125,4
1734786555.5349376,-0.9300537109375,-0.2911376953125,0.15576171875,-1.03759765625,-0.1831054538488388,5.615233898162842,4
1734786555.6554327,-0.9349365234375,-0.2691650390625,0.1434326171875,0.3662109076976776,-2.44140625,6.225585460662842,4
1734786555.7761183,-0.9310302734375,-0.2786865234375,0.1534423828125,3.417968511581421,-2.929687261581421,4.8828125,4
1734786555.89504,-0.9576416015625,-0.310546875,0.126220703125,0.6103515625,0.6103515625,0.4272460639476776,4
1734786556.0149808,-0.93505859375,-0.3133544921875,0.140869140625,-3.417968511581421,-0.6713866591453552,1.0986328125,4
1734786556.1348822,-0.947021484375,-0.3065185546875,0.1220703125,-2.685546636581421,-0.4272460639476776,2.685546636581421,4
1734786556.2544615,-0.9227294921875,-0.308837890625,0.1260986328125,-1.7700194120407104,-0.3662109076976776,1.8920897245407104,4
1734786556.3746698,-0.9036865234375,-0.3050537109375,0.1263427734375,-1.7700194120407104,-2.44140625,-0.30517578125,4
1734786556.554862,-0.8773193359375,-0.2867431640625,0.1068115234375,-0.4272460639476776,-14.709471702575684,-13.183592796325684,4
1734786556.6154227,-0.738525390625,-0.2178955078125,0.0797119140625,-0.1831054538488388,-14.160155296325684,-22.399900436401367,4
1734786556.7348053,-0.628173828125,-0.1768798828125,0.0191650390625,-4.2724609375,-36.56005859375,-25.573728561401367,4
1734786556.8570092,-0.7972412109375,-0.104248046875,0.0018310546875,9.46044921875,-8.056640625,-3.173827886581421,4
1734786556.9780025,-1.2259521484375,-0.162109375,-0.068359375,12.329100608825684,-25.756834030151367,-12.023924827575684,4
1734786557.0946653,-1.037109375,-0.1854248046875,-0.032958984375,3.051757574081421,-7.629394054412842,-4.150390625,4
1734786557.2148862,-1.17138671875,-0.1805419921875,-0.02978515625,3.356933355331421,2.807616949081421,-3.417968511581421,4
1734786557.2743807,-1.1416015625,-0.2171630859375,-0.0185546875,6.408690929412842,21.545408248901367,3.417968511581421,4
1734786557.3953454,-1.2159423828125,-0.1900634765625,-0.0048828125,10.620116233825684,-6.286620616912842,-3.356933355331421,4
1734786557.5146546,-1.5457763671875,-0.2757568359375,-0.028564453125,4.638671875,2.0751953125,5.371093273162842,4
1734786557.6351612,-1.231201171875,-0.260009765625,0.0374755859375,-1.7700194120407104,0.0,-0.6713866591453552,4
1734786557.754859,-1.189208984375,-0.24853515625,0.002685546875,-5.554198741912842,2.990722417831421,1.03759765625,4
1734786557.8749716,-0.9808349609375,-0.180908203125,0.0155029296875,-1.15966796875,-9.33837890625,-10.131834983825684,4
1734786557.995535,-0.6126708984375,-0.1031494140625,0.030029296875,-8.1787109375,22.521970748901367,2.746581792831421,4
1734786558.1148949,-0.48828125,-0.09326171875,0.0015869140625,-7.080077648162842,37.53662109375,25.329587936401367,4
1734786558.235662,-0.83837890625,-0.2161865234375,0.0802001953125,18.49365234375,-10.559081077575684,-9.21630859375,4
1734786558.35615,-0.8427734375,-0.181396484375,0.135009765625,-14.587401390075684,27.465818405151367,13.793944358825684,4
1734786558.8641202,-0.94482421875,-0.2374267578125,0.0911865234375,0.1831054538488388,1.6479490995407104,5.920409679412842,5
1734786558.8661468,-0.9078369140625,-0.25146484375,0.0958251953125,0.6713866591453552,-2.624511480331421,9.1552734375,5
1734786558.867148,-0.948974609375,-0.25341796875,0.110107421875,-0.1831054538488388,-3.051757574081421,4.150390625,5
1734786558.870305,-0.9193115234375,-0.2681884765625,0.1053466796875,-0.9765624403953552,-1.4648436307907104,1.7700194120407104,5
1734786558.9559188,-0.9599609375,-0.30419921875,0.0916748046875,-0.1831054538488388,-2.685546636581421,4.0283203125,5
1734786559.075501,-0.9344482421875,-0.2921142578125,0.09912109375,-2.685546636581421,-3.234863042831421,5.676269054412842,5
1734786559.1945581,-0.9151611328125,-0.285400390625,0.1011962890625,-2.929687261581421,-0.4882812201976776,-0.1220703050494194,5
1734786559.315438,-0.97509765625,-0.3004150390625,0.0985107421875,-4.57763671875,2.746581792831421,0.4882812201976776,5
1734786559.4346125,-0.952880859375,-0.2918701171875,0.1015625,-3.967284917831421,3.356933355331421,2.38037109375,5
1734786559.5544405,-0.920166015625,-0.29150390625,0.12158203125,-3.173827886581421,3.112792730331421,-0.1831054538488388,5
1734786559.6753857,-0.93310546875,-0.289306640625,0.116455078125,-0.3662109076976776,1.220703125,-0.54931640625,5
1734786559.8005269,-0.9315185546875,-0.2796630859375,0.12451171875,0.7934569716453552,3.540038824081421,-3.051757574081421,5
1734786559.9220881,-0.9200439453125,-0.2752685546875,0.1131591796875,0.54931640625,0.54931640625,-3.906249761581421,5
1734786560.034302,-0.8009033203125,-0.2396240234375,0.09765625,0.2441406100988388,-11.230467796325684,-9.8876953125,5
1734786560.1544294,-0.6712646484375,-0.1611328125,0.0924072265625,2.01416015625,-0.8544921278953552,-7.141112804412842,5
1734786560.2752469,-0.677734375,-0.1798095703125,0.058837890625,-0.2441406100988388,20.202634811401367,9.94873046875,5
1734786560.3945508,-0.895263671875,-0.2353515625,0.0885009765625,3.295898199081421,-14.221190452575684,-13.793944358825684,5
1734786560.5144658,-1.1011962890625,-0.278076171875,0.061767578125,-7.751464366912842,-11.230467796325684,-8.36181640625,5
1734786560.6524115,-0.993896484375,-0.2269287109375,0.148193359375,-7.324218273162842,-3.967284917831421,-2.685546636581421,5
1734786560.7549167,-1.180908203125,-0.2545166015625,0.046142578125,-4.39453125,0.0,1.3427733182907104,5
1734786560.8751175,-1.245849609375,-0.2254638671875,0.1192626953125,4.94384765625,3.295898199081421,0.9155272841453552,5
1734786560.99472,-1.396484375,-0.337158203125,0.125,5.554198741912842,5.981444835662842,-0.9155272841453552,5
1734786561.11535,-1.1453857421875,-0.276611328125,0.1239013671875,-3.784179449081421,3.356933355331421,2.0751953125,5
1734786561.2372224,-1.06298828125,-0.260498046875,0.0972900390625,-4.5166015625,-17.63916015625,-3.051757574081421,5
1734786561.356132,-0.9393310546875,-0.2288818359375,0.1041259765625,-3.295898199081421,-18.1884765625,-2.685546636581421,5
1734786561.4752758,-0.704833984375,-0.214111328125,0.02099609375,-6.530761241912842,-28.808591842651367,-21.240232467651367,5
1734786561.5951984,-0.797119140625,-0.0428466796875,-0.025634765625,-11.657713890075684,6.469726085662842,-3.784179449081421,5
1734786561.7148297,-0.7161865234375,-0.120361328125,0.0689697265625,12.817381858825684,17.51708984375,8.48388671875,5
1734786561.8352911,-1.18701171875,-0.1312255859375,0.02783203125,10.498045921325684,18.9208984375,3.051757574081421,5
1734786562.3708591,-0.8216552734375,-0.2366943359375,0.10791015625,7.995604991912842,1.7089842557907104,2.746581792831421,6
1734786562.3718576,-1.0037841796875,-0.1885986328125,0.091796875,3.295898199081421,6.835937023162842,6.774901866912842,6
1734786562.372856,-0.9234619140625,-0.23193359375,0.0968017578125,3.906249761581421,3.112792730331421,4.2724609375,6
1734786562.3738647,-0.94189453125,-0.200439453125,0.1070556640625,8.9111328125,-6.408690929412842,3.295898199081421,6
1734786562.4348123,-0.9825439453125,-0.230712890625,0.1204833984375,-2.3193359375,0.9765624403953552,4.94384765625,6
1734786562.554799,-0.9617919921875,-0.2421875,0.081298828125,-6.225585460662842,2.563476324081421,3.845214605331421,6
1734786562.6744485,-0.948974609375,-0.2503662109375,0.087646484375,-4.150390625,2.807616949081421,5.554198741912842,6
1734786562.7971125,-0.9527587890625,-0.246826171875,0.111572265625,-5.676269054412842,6.530761241912842,1.9531248807907104,6
1734786562.9152443,-0.938232421875,-0.232177734375,0.110107421875,0.54931640625,0.7324218153953552,-1.3427733182907104,6
1734786563.0343516,-0.984130859375,-0.261474609375,0.11083984375,2.50244140625,-2.25830078125,-3.356933355331421,6
1734786563.1548932,-0.9404296875,-0.27197265625,0.1142578125,-1.4648436307907104,-0.0610351525247097,1.6479490995407104,6
1734786563.2747886,-0.9588623046875,-0.2579345703125,0.114501953125,-5.432128429412842,-1.5869139432907104,4.39453125,6
1734786563.394957,-0.9234619140625,-0.25,0.105712890625,-5.920409679412842,-3.967284917831421,0.9765624403953552,6
1734786563.5157406,-0.824951171875,-0.2196044921875,0.10888671875,-7.507323741912842,-11.108397483825684,-12.268065452575684,6
1734786563.6355343,-0.6097412109375,-0.1695556640625,0.0877685546875,-19.95849609375,-1.3427733182907104,-5.920409679412842,6
1734786563.7567508,-0.77392578125,-0.18798828125,0.05126953125,-18.310546875,37.53662109375,14.770506858825684,6
1734786563.8743196,-0.9161376953125,-0.1788330078125,0.1221923828125,3.417968511581421,-20.629880905151367,-5.493163585662842,6
1734786563.9946356,-1.048095703125,-0.2288818359375,0.031982421875,1.5258787870407104,-17.08984375,-8.48388671875,6
1734786564.1152527,-1.1065673828125,-0.19677734375,0.049072265625,6.774901866912842,7.202147960662842,-10.986327171325684,6
1734786564.2353716,-1.1395263671875,-0.231689453125,0.1351318359375,3.662109136581421,3.479003667831421,-0.4882812201976776,6
1734786564.3549612,-1.3131103515625,-0.2401123046875,0.106689453125,2.44140625,-5.187987804412842,-3.784179449081421,6
1734786564.4744911,-1.3333740234375,-0.2105712890625,0.1256103515625,1.8920897245407104,12.512206077575684,8.6669921875,6
1734786564.6021342,-1.1993408203125,-0.2266845703125,0.096923828125,-3.295898199081421,2.746581792831421,3.601073980331421,6
1734786564.7152314,-1.10009765625,-0.2318115234375,0.1004638671875,-5.798339366912842,-8.85009765625,-0.0610351525247097,6
1734786564.835355,-0.9224853515625,-0.1781005859375,0.07421875,-7.263183116912842,-23.010251998901367,-6.835937023162842,6
1734786564.986528,-0.889892578125,-0.1190185546875,0.0382080078125,2.685546636581421,-53.894039154052734,-23.803709030151367,6
1734786565.0743651,-0.6895751953125,-0.1226806640625,0.0008544921875,1.0986328125,9.765625,14.770506858825684,6
1734786565.195157,-0.5753173828125,-0.0892333984375,-0.0238037109375,9.33837890625,21.850584030151367,31.555173873901367,6
1734786565.3148623,-0.91162109375,-0.2662353515625,-0.007568359375,10.559081077575684,-11.413573265075684,3.051757574081421,6
1734786565.9029434,-0.9183349609375,-0.30224609375,0.060546875,-0.4272460639476776,4.150390625,10.559081077575684,7
1734786565.9047272,-1.0689697265625,-0.2127685546875,0.0308837890625,-4.21142578125,1.9531248807907104,0.6713866591453552,7
1734786565.9067254,-0.9139404296875,-0.28759765625,0.0255126953125,-3.356933355331421,7.324218273162842,5.798339366912842,7
1734786565.9080968,-0.9617919921875,-0.2896728515625,0.01171875,-2.563476324081421,-0.1831054538488388,7.934569835662842,7
1734786565.9156249,-0.9256591796875,-0.2747802734375,0.064208984375,-4.33349609375,2.685546636581421,0.4272460639476776,7
1734786566.0353916,-0.951171875,-0.2886962890625,0.0596923828125,-3.112792730331421,5.371093273162842,-4.7607421875,7
1734786566.1585574,-0.947021484375,-0.3052978515625,0.0595703125,-2.685546636581421,1.8920897245407104,-1.3427733182907104,7
1734786566.276167,-0.9482421875,-0.2919921875,0.06982421875,-1.03759765625,1.3427733182907104,4.33349609375,7
1734786566.3947935,-0.93603515625,-0.271728515625,0.082763671875,-4.69970703125,1.0986328125,0.2441406100988388,7
1734786566.5147219,-0.9404296875,-0.298828125,0.078125,0.8544921278953552,0.54931640625,1.5258787870407104,7
1734786566.6342652,-0.926513671875,-0.2962646484375,0.063720703125,-0.6103515625,1.03759765625,3.234863042831421,7
1734786566.7582688,-0.953125,-0.285400390625,0.085693359375,-3.417968511581421,-1.4648436307907104,-2.0751953125,7
1734786566.8743668,-0.92822265625,-0.29638671875,0.0858154296875,-1.4648436307907104,0.3662109076976776,-0.7324218153953552,7
1734786566.994626,-0.893798828125,-0.269287109375,0.064453125,-0.6103515625,-4.7607421875,-6.225585460662842,7
1734786567.1147346,-0.8720703125,-0.2430419921875,0.0345458984375,4.7607421875,-16.66259765625,-20.996091842651367,7
1734786567.2341812,-0.6614990234375,-0.1617431640625,0.0126953125,-0.9155272841453552,-15.808104515075684,-16.05224609375,7
1734786567.3550434,-0.7996826171875,-0.1689453125,-0.0064697265625,-8.11767578125,-1.220703125,-3.356933355331421,7
1734786567.4749897,-1.0103759765625,-0.147705078125,-0.0408935546875,-2.868652105331421,7.263183116912842,2.0751953125,7
1734786567.5947163,-0.89208984375,-0.1138916015625,-0.0596923828125,10.559081077575684,1.220703125,-6.164550304412842,7
1734786567.714343,-1.146484375,-0.1458740234375,-0.015625,13.671874046325684,-11.108397483825684,-10.803221702575684,7
1734786567.8351035,-1.1080322265625,-0.1934814453125,0.041748046875,6.164550304412842,-6.286620616912842,-3.723144292831421,7
1734786567.955271,-1.3829345703125,-0.259521484375,-0.005859375,5.981444835662842,-13.732909202575684,-4.5166015625,7
1734786568.074395,-1.342041015625,-0.148193359375,-0.0291748046875,-8.544921875,13.549803733825684,5.493163585662842,7
1734786568.194944,-1.21728515625,-0.1636962890625,-0.0325927734375,-7.629394054412842,6.164550304412842,1.220703125,7
1734786568.3147693,-1.2008056640625,-0.2237548828125,-0.0665283203125,-5.981444835662842,-1.6479490995407104,0.30517578125,7
1734786568.4347148,-0.9862060546875,-0.204345703125,-0.0128173828125,-8.85009765625,-2.0751953125,2.929687261581421,7
1734786568.5542908,-0.80078125,-0.09375,-0.076904296875,-6.408690929412842,-24.047849655151367,-13.427733421325684,7
1734786568.6744776,-0.69677734375,-0.116943359375,-0.0577392578125,-7.995604991912842,-9.21630859375,-5.493163585662842,7
1734786568.7946494,-0.635986328125,-0.1396484375,-0.0177001953125,-4.82177734375,29.052732467651367,31.188962936401367,7
1734786569.4162405,-1.0860595703125,-0.263427734375,-0.072509765625,12.573241233825684,-44.677730560302734,4.638671875,8
1734786569.418241,-0.8013916015625,-0.12841796875,0.02099609375,-2.50244140625,-2.0751953125,6.896972179412842,8
1734786569.4202056,-1.016845703125,-0.2222900390625,-0.05322265625,-7.812499523162842,3.845214605331421,-10.498045921325684,8
1734786569.4207377,-0.9310302734375,-0.2640380859375,-0.0213623046875,0.4882812201976776,7.629394054412842,-2.746581792831421,8
1734786569.4216459,-0.952880859375,-0.1912841796875,0.0205078125,5.737304210662842,6.591796398162842,2.0751953125,8
1734786569.5147727,-0.9749755859375,-0.2142333984375,0.037841796875,4.2724609375,5.126952648162842,1.0986328125,8
1734786569.574827,-0.9632568359375,-0.2100830078125,0.033447265625,0.2441406100988388,7.080077648162842,0.54931640625,8
1734786569.6947334,-0.968017578125,-0.2078857421875,0.0262451171875,-0.54931640625,2.868652105331421,2.0751953125,8
1734786569.8143892,-0.967529296875,-0.228515625,0.033203125,-2.990722417831421,0.7324218153953552,-1.5869139432907104,8
1734786569.935513,-0.9437255859375,-0.2080078125,0.052978515625,-7.568358898162842,7.080077648162842,1.6479490995407104,8
1734786570.055216,-0.9671630859375,-0.1884765625,0.0380859375,0.0,-0.1831054538488388,0.1831054538488388,8
1734786570.1747274,-0.9793701171875,-0.2119140625,0.04248046875,0.6103515625,-2.44140625,0.54931640625,8
1734786570.294227,-0.946044921875,-0.202880859375,0.0518798828125,2.25830078125,-3.906249761581421,-1.15966796875,8
1734786570.4154837,-0.883056640625,-0.1949462890625,0.0323486328125,6.042479991912842,-13.916014671325684,-12.145995140075684,8
1734786570.5350087,-0.8699951171875,-0.163330078125,-0.008056640625,4.33349609375,-14.038084983825684,-15.441893577575684,8
1734786570.6539934,-0.6907958984375,-0.1014404296875,0.0469970703125,0.9765624403953552,-11.047362327575684,-8.85009765625,8
1734786570.7744546,-0.7784423828125,-0.107666015625,-0.0408935546875,7.202147960662842,-3.479003667831421,-5.798339366912842,8
1734786570.894569,-1.0299072265625,-0.1119384765625,-0.0543212890625,23.193357467651367,-26.428220748901367,-4.45556640625,8
1734786571.0149534,-1.12060546875,-0.1573486328125,-0.10791015625,7.873534679412842,4.69970703125,1.6479490995407104,8
1734786571.194952,-1.3675537109375,-0.229248046875,-0.0911865234375,-0.1220703050494194,-0.3662109076976776,7.934569835662842,8
1734786571.2549589,-1.18798828125,-0.195068359375,-0.0013427734375,-1.2817381620407104,-0.9155272841453552,0.9155272841453552,8
1734786571.4422827,-1.3350830078125,-0.2025146484375,0.00439453125,-3.417968511581421,6.591796398162842,4.57763671875,8
1734786571.495546,-1.3348388671875,-0.2275390625,-0.0716552734375,-6.591796398162842,12.207030296325684,6.530761241912842,8
1734786571.6150208,-1.0960693359375,-0.2000732421875,-0.0347900390625,-4.21142578125,-9.765625,-0.4272460639476776,8
1734786571.7344832,-1.0572509765625,-0.2060546875,-0.0277099609375,-8.544921875,-8.056640625,-1.5869139432907104,8
1734786571.8549812,-0.9267578125,-0.155517578125,-0.0283203125,-4.69970703125,-27.526853561401367,-10.131834983825684,8
1734786571.974582,-0.6822509765625,-0.11328125,-0.080078125,-2.3193359375,-20.568845748901367,-20.751951217651367,8
1734786572.09468,-0.56591796875,-0.0565185546875,-0.082763671875,-3.112792730331421,30.639646530151367,20.935056686401367,8
1734786572.2153387,-0.8304443359375,-0.240478515625,-0.0921630859375,3.295898199081421,-2.624511480331421,8.7890625,8
1734786572.3351939,-1.0872802734375,-0.0777587890625,-0.06884765625,-3.601073980331421,9.33837890625,3.356933355331421,8
1734786572.9337237,-0.8875732421875,-0.222900390625,-0.00830078125,2.44140625,8.4228515625,1.03759765625,9
1734786572.934706,-0.9632568359375,-0.1697998046875,-0.025634765625,-7.202147960662842,2.624511480331421,-1.4648436307907104,9
1734786572.9367282,-0.96728515625,-0.1510009765625,0.0020751953125,2.685546636581421,3.295898199081421,3.723144292831421,9
1734786572.938727,-0.98291015625,-0.1881103515625,-0.0103759765625,5.920409679412842,4.2724609375,2.44140625,9
1734786572.939727,-0.9603271484375,-0.215576171875,-0.0267333984375,1.15966796875,0.0610351525247097,0.0610351525247097,9
1734786573.0538325,-0.962890625,-0.1986083984375,-0.0218505859375,-3.967284917831421,-0.6103515625,1.03759765625,9
1734786573.1751037,-0.9913330078125,-0.2005615234375,-0.0128173828125,-5.859374523162842,0.4882812201976776,1.9531248807907104,9
1734786573.2947323,-0.958740234375,-0.1983642578125,0.0010986328125,-4.69970703125,3.601073980331421,2.807616949081421,9
1734786573.414353,-0.9678955078125,-0.19482421875,0.0028076171875,-3.540038824081421,4.7607421875,1.4648436307907104,9
1734786573.535381,-0.9825439453125,-0.1973876953125,0.024658203125,0.1220703050494194,0.4272460639476776,0.6713866591453552,9
1734786573.6543977,-0.96484375,-0.2060546875,0.0150146484375,1.9531248807907104,0.3662109076976776,1.6479490995407104,9
1734786573.774462,-0.9517822265625,-0.211669921875,0.0,0.6713866591453552,-1.8310545682907104,-0.9765624403953552,9
1734786573.8947926,-0.8638916015625,-0.175048828125,-0.01806640625,2.197265625,-14.160155296325684,-13.671874046325684,9
1734786574.01661,-0.6644287109375,-0.13671875,-0.033935546875,-3.356933355331421,-1.4648436307907104,-12.207030296325684,9
1734786574.1351383,-0.6895751953125,-0.079345703125,-0.053466796875,9.521484375,-19.95849609375,-15.991209983825684,9
1734786574.255079,-0.8948974609375,-0.09912109375,-0.1060791015625,5.554198741912842,-15.563963890075684,-10.925292015075684,9
1734786574.3747287,-1.130859375,-0.1077880859375,-0.052001953125,5.859374523162842,-3.662109136581421,9.3994140625,9
1734786574.4953678,-1.0238037109375,-0.201416015625,0.018310546875,1.4038084745407104,32.3486328125,6.774901866912842,9
1734786574.6151307,-1.2435302734375,-0.23828125,-0.0218505859375,-8.6669921875,10.864256858825684,4.21142578125,9
1734786574.735403,-1.48046875,-0.1865234375,0.0067138671875,7.934569835662842,-12.512206077575684,3.051757574081421,9
1734786574.8554757,-1.3958740234375,-0.22119140625,0.013427734375,-5.798339366912842,7.324218273162842,7.141112804412842,9
1734786574.9751744,-1.167724609375,-0.2005615234375,0.010498046875,-12.451170921325684,2.01416015625,-0.30517578125,9
1734786575.095195,-1.0546875,-0.184326171875,0.0047607421875,-9.1552734375,-1.7089842557907104,0.0610351525247097,9
1734786575.2151318,-0.8524169921875,-0.155517578125,-0.0135498046875,-8.30078125,-12.329100608825684,-11.413573265075684,9
1734786575.33476,-0.664794921875,-0.0660400390625,-0.1143798828125,7.019042491912842,-49.377437591552734,-25.268552780151367,9
1734786575.4549646,-0.5345458984375,-0.0819091796875,-0.088134765625,-19.1650390625,29.846189498901367,27.587888717651367,9
1734786575.5753856,-0.9571533203125,-0.205322265625,-0.0826416015625,4.82177734375,-5.676269054412842,2.929687261581421,9
1734786575.6953752,-0.8953857421875,-0.03173828125,0.0010986328125,-10.559081077575684,35.94970703125,25.451658248901367,9
1734786575.8149815,-1.0816650390625,-0.13134765625,-0.05126953125,13.793944358825684,-6.286620616912842,2.01416015625,9
1734786575.935043,-0.898193359375,-0.1929931640625,-0.013671875,5.493163585662842,-6.835937023162842,1.7089842557907104,9
1734786576.4525194,-0.96630859375,-0.2578125,-0.059326171875,2.44140625,1.03759765625,4.39453125,10
1734786576.4535332,-0.93115234375,-0.2144775390625,-0.0338134765625,0.0610351525247097,2.50244140625,2.624511480331421,10
1734786576.4535332,-0.986083984375,-0.204345703125,-0.04541015625,2.44140625,10.864256858825684,-1.7089842557907104,10
1734786576.4555323,-0.9412841796875,-0.2169189453125,-0.0205078125,7.385253429412842,2.0751953125,-2.746581792831421,10
1734786576.5341997,-0.95166015625,-0.2237548828125,-0.00537109375,4.0283203125,6.958007335662842,2.563476324081421,10
1734786576.6547742,-0.98486328125,-0.2208251953125,-0.0069580078125,-0.8544921278953552,5.615233898162842,2.807616949081421,10
1734786576.7748785,-0.931640625,-0.224365234375,0.019775390625,-3.112792730331421,5.615233898162842,2.563476324081421,10
1734786576.9246035,-0.9520263671875,-0.2330322265625,0.0242919921875,-3.051757574081421,3.112792730331421,1.4038084745407104,10
1734786577.018334,-0.9866943359375,-0.2352294921875,0.0179443359375,-0.2441406100988388,2.746581792831421,-0.1220703050494194,10
1734786577.1378517,-0.94091796875,-0.242431640625,0.03369140625,2.50244140625,0.4272460639476776,4.82177734375,10
1734786577.2552488,-0.9400634765625,-0.2332763671875,0.0413818359375,2.3193359375,0.2441406100988388,2.624511480331421,10
1734786577.3744898,-0.93115234375,-0.2447509765625,0.026611328125,-0.3662109076976776,-4.2724609375,-4.39453125,10
1734786577.4942524,-0.895263671875,-0.21337890625,0.007568359375,-0.7934569716453552,-8.9111328125,-14.160155296325684,10
1734786577.6144044,-0.52001953125,-0.1668701171875,0.0531005859375,-15.747069358825684,17.822265625,-4.57763671875,10
1734786577.7339468,-0.760986328125,-0.164306640625,-0.016845703125,-3.540038824081421,9.70458984375,-0.0610351525247097,10
1734786577.854451,-0.9443359375,-0.135986328125,0.009765625,11.779784202575684,3.234863042831421,-15.624999046325684,10
1734786577.9748313,-1.1773681640625,-0.1082763671875,0.00244140625,16.66259765625,0.8544921278953552,-6.835937023162842,10
1734786578.0952034,-1.3170166015625,-0.1978759765625,0.061279296875,-0.1220703050494194,0.2441406100988388,-2.38037109375,10
1734786578.2147148,-1.1578369140625,-0.2056884765625,0.14794921875,-2.197265625,29.968259811401367,7.690429210662842,10
1734786578.338797,-1.695068359375,-0.20166015625,0.13232421875,10.742186546325684,-17.63916015625,-5.920409679412842,10
1734786578.4546704,-1.1934814453125,-0.215087890625,0.1629638671875,-1.220703125,7.568358898162842,3.906249761581421,10
1734786578.5747333,-1.1336669921875,-0.2088623046875,0.14404296875,-7.995604991912842,-8.056640625,-1.9531248807907104,10
1734786578.6951587,-0.849365234375,-0.18115234375,0.1181640625,-6.774901866912842,-16.54052734375,-10.986327171325684,10
1734786578.8745017,-0.818115234375,-0.1412353515625,0.026123046875,-3.662109136581421,-25.634763717651367,-26.062009811401367,10
1734786578.9340572,-0.712646484375,-0.0736083984375,-0.000244140625,-9.033203125,4.7607421875,7.690429210662842,10
1734786579.054709,-0.5897216796875,-0.0452880859375,0.03662109375,-5.432128429412842,36.43798828125,23.437498092651367,10
1734786579.1750646,-1.2471923828125,-0.0850830078125,-0.0506591796875,16.845703125,-40.771480560302734,-10.986327171325684,10
1734786579.29384,-0.813232421875,-0.1817626953125,0.10546875,-0.0610351525247097,-15.686034202575684,-8.30078125,10
1734786579.4149764,-0.9554443359375,-0.1142578125,0.0982666015625,-7.141112804412842,12.756346702575684,2.563476324081421,10
1734786579.9703617,-0.9566650390625,-0.1280517578125,0.0968017578125,2.50244140625,3.234863042831421,6.530761241912842,11
1734786579.9715369,-1.0093994140625,-0.154052734375,0.0972900390625,0.1831054538488388,0.0610351525247097,2.50244140625,11
1734786579.9726515,-0.9708251953125,-0.1658935546875,0.1004638671875,0.1831054538488388,-1.3427733182907104,2.13623046875,11
1734786579.973124,-0.9498291015625,-0.170166015625,0.0888671875,-1.15966796875,1.15966796875,1.4648436307907104,11
1734786580.0152354,-0.961669921875,-0.1588134765625,0.0841064453125,-1.7089842557907104,-2.25830078125,-0.30517578125,11
1734786580.134475,-0.9801025390625,-0.15185546875,0.094970703125,-3.173827886581421,-1.7089842557907104,-1.5258787870407104,11
1734786580.2545164,-0.985107421875,-0.159423828125,0.0908203125,-0.6713866591453552,3.784179449081421,1.03759765625,11
1734786580.3747697,-0.9473876953125,-0.1409912109375,0.087158203125,0.30517578125,4.0283203125,2.3193359375,11
1734786580.495184,-0.9429931640625,-0.1553955078125,0.0933837890625,-0.8544921278953552,0.9765624403953552,1.3427733182907104,11
1734786580.6146188,-0.9822998046875,-0.1531982421875,0.09326171875,-2.38037109375,0.54931640625,0.7324218153953552,11
1734786580.7342238,-0.96630859375,-0.1572265625,0.0980224609375,-0.8544921278953552,-1.220703125,-0.1220703050494194,11
1734786580.8547087,-0.913330078125,-0.138916015625,0.070556640625,3.784179449081421,-11.718749046325684,-7.446288585662842,11
1734786580.9750574,-0.8232421875,-0.1337890625,0.048095703125,-1.2817381620407104,-17.9443359375,-12.817381858825684,11
1734786581.09482,-0.7200927734375,-0.0732421875,0.0338134765625,-7.507323741912842,15.014647483825684,5.615233898162842,11
1734786581.2144907,-0.684326171875,-0.1685791015625,0.052734375,0.1220703050494194,-5.737304210662842,-15.502928733825684,11
1734786581.3350165,-1.0303955078125,-0.0638427734375,0.10498046875,10.559081077575684,33.5693359375,6.103515148162842,11
1734786581.4543052,-1.173828125,-0.134033203125,0.070068359375,2.197265625,-5.432128429412842,3.234863042831421,11
1734786581.5747488,-1.02197265625,-0.1226806640625,0.0880126953125,-14.465331077575684,7.934569835662842,11.474608421325684,11
1734786581.7112694,-1.222900390625,-0.1322021484375,0.1243896484375,-7.385253429412842,-9.8876953125,1.3427733182907104,11
1734786581.814933,-1.3746337890625,-0.1729736328125,0.1451416015625,3.845214605331421,-9.09423828125,-0.0610351525247097,11
1734786581.9344347,-1.4803466796875,-0.2601318359375,0.047119140625,0.0610351525247097,14.892577171325684,10.742186546325684,11
1734786582.054854,-1.1583251953125,-0.1435546875,0.06787109375,-1.220703125,-13.610838890075684,3.417968511581421,11
1734786582.1752496,-0.9295654296875,-0.1676025390625,0.0374755859375,0.2441406100988388,-10.375975608825684,9.46044921875,11
1734786582.2939706,-0.8564453125,-0.1959228515625,0.0296630859375,7.263183116912842,-19.83642578125,-7.446288585662842,11
1734786582.4149852,-0.5789794921875,-0.104736328125,0.00732421875,7.263183116912842,1.4648436307907104,-4.69970703125,11
1734786582.5345564,-0.4852294921875,-0.0953369140625,-0.015625,-17.63916015625,41.564937591552734,45.410152435302734,11
1734786582.6549714,-1.215576171875,-0.2703857421875,-0.0106201171875,6.896972179412842,-82.03124237060547,-2.807616949081421,11
1734786582.7744033,-0.801025390625,-0.213623046875,0.156982421875,3.051757574081421,-15.686034202575684,-0.2441406100988388,11
1734786582.8950078,-1.091796875,-0.2333984375,0.06689453125,-12.817381858825684,28.808591842651367,5.554198741912842,11
1734786583.4931507,-0.927490234375,-0.2364501953125,0.0745849609375,0.4882812201976776,1.4038084745407104,0.7324218153953552,12
1734786583.4936514,-0.9461669921875,-0.2659912109375,0.08251953125,-2.990722417831421,1.8920897245407104,0.8544921278953552,12
1734786583.494666,-0.953857421875,-0.260986328125,0.09228515625,-3.417968511581421,3.540038824081421,-0.6103515625,12
1734786583.4966643,-0.943115234375,-0.2430419921875,0.098876953125,-0.6713866591453552,0.6103515625,-0.1831054538488388,12
1734786583.497666,-0.943115234375,-0.2437744140625,0.1065673828125,0.2441406100988388,4.7607421875,0.2441406100988388,12
1734786583.5543742,-0.94677734375,-0.267578125,0.1129150390625,-1.220703125,4.21142578125,-1.03759765625,12
1734786583.6744337,-0.95068359375,-0.252685546875,0.103515625,0.1831054538488388,4.2724609375,0.54931640625,12
1734786583.7948132,-0.923095703125,-0.2769775390625,0.12060546875,-1.7089842557907104,3.784179449081421,0.7934569716453552,12
1734786583.9147317,-0.9462890625,-0.2635498046875,0.1221923828125,-2.563476324081421,0.30517578125,1.6479490995407104,12
1734786584.035242,-0.941650390625,-0.251220703125,0.1318359375,-2.990722417831421,-0.1831054538488388,0.8544921278953552,12
1734786584.1544538,-0.927490234375,-0.2569580078125,0.1341552734375,-1.9531248807907104,1.03759765625,0.2441406100988388,12
1734786584.2751374,-0.9144287109375,-0.2532958984375,0.1370849609375,-1.4038084745407104,0.4272460639476776,-1.15966796875,12
1734786584.3949404,-0.892578125,-0.2347412109375,0.100830078125,-2.624511480331421,-13.671874046325684,-11.657713890075684,12
1734786584.5138996,-0.8294677734375,-0.197265625,0.09619140625,-5.371093273162842,-21.362302780151367,-19.4091796875,12
1734786584.6345758,-0.465576171875,-0.127197265625,0.108642578125,-14.038084983825684,-5.493163585662842,-17.2119140625,12
1734786584.754466,-0.84326171875,-0.1304931640625,0.0164794921875,7.812499523162842,10.009765625,-4.39453125,12
1734786584.8742063,-0.9215087890625,-0.0340576171875,0.0279541015625,22.399900436401367,-4.69970703125,-8.4228515625,12
1734786584.995043,-1.1715087890625,-0.1392822265625,-0.0716552734375,9.8876953125,-15.258788108825684,-8.30078125,12
1734786585.114426,-1.17822265625,-0.1412353515625,0.0054931640625,-4.45556640625,6.958007335662842,10.742186546325684,12
1734786585.2355108,-1.3935546875,-0.1676025390625,-0.0377197265625,-8.11767578125,-11.840819358825684,-2.25830078125,12
1734786585.354773,-1.4295654296875,-0.1441650390625,0.00634765625,-3.173827886581421,6.042479991912842,2.3193359375,12
1734786585.4751709,-1.2952880859375,-0.18798828125,0.012939453125,-1.15966796875,18.06640625,4.08935546875,12
1734786585.5949507,-1.11083984375,-0.1719970703125,0.0540771484375,-6.591796398162842,3.479003667831421,2.746581792831421,12
1734786585.7145169,-0.9254150390625,-0.1368408203125,0.031982421875,-3.295898199081421,-0.30517578125,-0.30517578125,12
1734786585.8351846,-0.855224609375,-0.1536865234375,0.0067138671875,7.629394054412842,-15.014647483825684,-10.498045921325684,12
1734786585.9553306,-0.6029052734375,-0.0391845703125,-0.02587890625,8.97216796875,-38.9404296875,-37.7197265625,12
1734786586.07494,-0.6474609375,-0.1033935546875,-0.0821533203125,-5.981444835662842,41.015621185302734,29.846189498901367,12
1734786586.194983,-1.0400390625,-0.1016845703125,-0.076416015625,9.27734375,-44.067378997802734,-0.6103515625,12
1734786586.3190403,-0.9329833984375,-0.053466796875,-0.04296875,-12.695311546325684,21.362302780151367,13.061522483825684,12
1734786586.4347496,-0.9835205078125,-0.037109375,-0.0078125,-7.019042491912842,8.72802734375,2.25830078125,12
1734786587.0210524,-0.9818115234375,-0.1453857421875,-0.0283203125,-4.0283203125,8.6669921875,-0.30517578125,13
1734786587.023391,-0.9857177734375,-0.1334228515625,-0.0023193359375,0.1831054538488388,3.601073980331421,0.6103515625,13
1734786587.0245037,-0.9920654296875,-0.13134765625,0.02294921875,4.57763671875,10.986327171325684,4.57763671875,13
1734786587.0250084,-0.9642333984375,-0.156005859375,0.030517578125,6.103515148162842,3.112792730331421,2.01416015625,13
1734786587.0348058,-0.9849853515625,-0.16455078125,0.03759765625,4.5166015625,4.150390625,2.13623046875,13
1734786587.154902,-0.9954833984375,-0.168701171875,0.030029296875,2.563476324081421,2.929687261581421,1.6479490995407104,13
1734786587.2745397,-0.9488525390625,-0.1658935546875,0.0545654296875,1.15966796875,5.493163585662842,2.44140625,13
1734786587.3952796,-0.995849609375,-0.1534423828125,0.07275390625,4.39453125,-1.5869139432907104,0.2441406100988388,13
1734786587.5151434,-0.980224609375,-0.1622314453125,0.0513916015625,1.6479490995407104,1.15966796875,-0.2441406100988388,13
1734786587.6348715,-0.959228515625,-0.1690673828125,0.052490234375,0.0610351525247097,-0.30517578125,-1.220703125,13
1734786587.755317,-0.9603271484375,-0.1688232421875,0.057373046875,-0.9765624403953552,-2.25830078125,-0.3662109076976776,13
1734786587.8743753,-0.950439453125,-0.1485595703125,0.0367431640625,0.9765624403953552,-10.070799827575684,-10.375975608825684,13
1734786587.9952688,-0.8131103515625,-0.1104736328125,0.002685546875,3.295898199081421,-8.36181640625,-13.183592796325684,13
1734786588.1148348,-0.4986572265625,-0.057373046875,0.038818359375,-2.01416015625,-10.559081077575684,-2.0751953125,13
1734786588.234981,-0.8743896484375,-0.0911865234375,-0.04052734375,5.859374523162842,-35.0341796875,-29.418943405151367,13
1734786588.3551626,-1.01708984375,-0.0478515625,-0.06201171875,-8.056640625,33.87451171875,7.995604991912842,13
1734786588.474647,-1.2322998046875,-0.0736083984375,-0.032470703125,-8.4228515625,5.310058116912842,11.352538108825684,13
1734786588.594872,-1.2481689453125,-0.1187744140625,0.0234375,-3.601073980331421,17.88330078125,15.502928733825684,13
1734786588.715273,-1.312744140625,-0.1697998046875,0.115478515625,7.812499523162842,-8.4228515625,-2.624511480331421,13
1734786588.834538,-1.6217041015625,-0.224365234375,0.002685546875,4.8828125,10.375975608825684,11.108397483825684,13
1734786588.955102,-1.176513671875,-0.1656494140625,0.0496826171875,0.6103515625,0.2441406100988388,-3.051757574081421,13
1734786589.0749214,-1.016357421875,-0.1600341796875,0.0460205078125,-2.3193359375,2.868652105331421,2.13623046875,13
1734786589.194837,-0.83203125,-0.1435546875,0.00537109375,0.6713866591453552,-36.1328125,-19.95849609375,13
1734786589.3152232,-0.595703125,-0.057373046875,-0.0260009765625,-0.54931640625,0.2441406100988388,-18.9208984375,13
1734786589.435117,-0.5556640625,0.01416015625,-0.0426025390625,-1.4038084745407104,41.015621185302734,25.756834030151367,13
1734786589.5546148,-0.68603515625,-0.175537109375,0.0296630859375,12.817381858825684,13.183592796325684,-9.8876953125,13
1734786589.6747742,-0.8121337890625,-0.081787109375,0.0970458984375,-6.225585460662842,51.818843841552734,16.845703125,13
1734786589.7952492,-1.1396484375,-0.108642578125,0.0311279296875,-7.141112804412842,-13.183592796325684,-4.39453125,13
1734786589.914231,-0.9852294921875,-0.0960693359375,0.0482177734375,-3.967284917831421,1.7089842557907104,2.868652105331421,13
1734786590.5348082,-0.9815673828125,-0.1005859375,0.037109375,-9.3994140625,5.859374523162842,1.6479490995407104,14
1734786590.5364037,-0.9935302734375,-0.102783203125,0.0572509765625,-11.169432640075684,3.356933355331421,-0.4882812201976776,14
1734786590.5379968,-0.985107421875,-0.092529296875,0.059814453125,-4.94384765625,3.051757574081421,2.0751953125,14
1734786590.5397468,-0.965576171875,-0.0965576171875,0.0628662109375,-2.624511480331421,4.57763671875,2.563476324081421,14
1734786590.541417,-0.9652099609375,-0.0911865234375,0.0872802734375,0.54931640625,0.6713866591453552,0.2441406100988388,14
1734786590.6347625,-1.0089111328125,-0.097900390625,0.092529296875,0.2441406100988388,3.723144292831421,0.3662109076976776,14
1734786590.7549636,-1.0010986328125,-0.100830078125,0.0771484375,1.03759765625,1.03759765625,2.746581792831421,14
1734786590.8743663,-0.9686279296875,-0.123779296875,0.0875244140625,0.3662109076976776,-0.8544921278953552,0.7324218153953552,14
1734786590.9944282,-0.979248046875,-0.1229248046875,0.089599609375,-0.2441406100988388,0.0,1.03759765625,14
1734786591.126823,-0.9818115234375,-0.1146240234375,0.081787109375,0.8544921278953552,-4.0283203125,-1.7089842557907104,14
1734786591.2350695,-0.9825439453125,-0.123291015625,0.0736083984375,-1.0986328125,-5.859374523162842,-2.746581792831421,14
1734786591.35448,-0.9654541015625,-0.1221923828125,0.06396484375,-1.7089842557907104,-5.371093273162842,0.7934569716453552,14
1734786591.4749432,-0.9339599609375,-0.102783203125,0.0350341796875,0.1831054538488388,-10.070799827575684,-3.845214605331421,14
1734786591.5944538,-0.841552734375,-0.0738525390625,0.0042724609375,5.126952648162842,-21.972654342651367,-15.319823265075684,14
1734786591.7185638,-0.5030517578125,-0.066162109375,-0.007080078125,-3.356933355331421,0.30517578125,-6.286620616912842,14
1734786591.8375597,-0.86767578125,-0.00537109375,0.0167236328125,3.906249761581421,18.1884765625,4.21142578125,14
1734786591.954696,-0.91845703125,-0.0887451171875,0.011962890625,7.873534679412842,7.690429210662842,7.324218273162842,14
1734786592.0748641,-1.3226318359375,-0.122314453125,-0.0286865234375,-6.591796398162842,10.192870140075684,21.911619186401367,14
1734786592.1943088,-1.1942138671875,-0.151123046875,0.15185546875,-12.695311546325684,8.30078125,11.352538108825684,14
1734786592.3148055,-1.4033203125,-0.203369140625,0.1182861328125,-0.9765624403953552,0.9155272841453552,-11.962889671325684,14
1734786592.4945905,-1.4521484375,-0.238037109375,0.097412109375,2.929687261581421,-4.2724609375,3.723144292831421,14
1734786592.554918,-1.1912841796875,-0.1556396484375,0.093017578125,-12.634276390075684,-3.173827886581421,5.126952648162842,14
1734786592.6741908,-1.20068359375,-0.1212158203125,0.0185546875,-8.85009765625,-23.681638717651367,-2.01416015625,14
1734786592.7950764,-0.898681640625,-0.138671875,0.0224609375,-7.263183116912842,-17.2119140625,-14.587401390075684,14
1734786592.9144793,-0.8033447265625,-0.0562744140625,-0.021484375,0.7324218153953552,-19.83642578125,-30.517576217651367,14
1734786593.034107,-0.7042236328125,-0.0335693359375,-0.0665283203125,14.099120140075684,36.43798828125,23.071287155151367,14
1734786593.156922,-0.6771240234375,-0.19873046875,0.087890625,25.451658248901367,19.775390625,-1.7089842557907104,14
1734786593.2767575,-0.864013671875,-0.0587158203125,0.03125,-6.225585460662842,55.419918060302734,20.263669967651367,14
1734786593.3968768,-0.9468994140625,-0.1805419921875,0.0728759765625,6.225585460662842,-24.902341842651367,1.4038084745407104,14
1734786593.5166295,-0.97607421875,-0.1258544921875,0.0538330078125,4.0283203125,3.051757574081421,14.221190452575684,14
1734786594.0267494,-0.941162109375,-0.1473388671875,0.0584716796875,9.3994140625,-1.5258787870407104,4.5166015625,15
1734786594.0275702,-0.953857421875,-0.2069091796875,0.0555419921875,-1.7700194120407104,-0.0610351525247097,-0.4272460639476776,15
1734786594.0290718,-1.0084228515625,-0.2061767578125,0.047119140625,0.1220703050494194,-0.7934569716453552,2.868652105331421,15
1734786594.0310714,-0.96533203125,-0.187744140625,0.0455322265625,0.54931640625,2.868652105331421,3.356933355331421,15
1734786594.1144688,-0.9691162109375,-0.1846923828125,0.0408935546875,3.662109136581421,-1.0986328125,0.2441406100988388,15
1734786594.2348642,-0.9818115234375,-0.195556640625,0.045654296875,3.662109136581421,0.1831054538488388,-3.601073980331421,15
1734786594.3542082,-0.951904296875,-0.2283935546875,0.0538330078125,-1.4648436307907104,3.601073980331421,-0.54931640625,15
1734786594.4756894,-0.956787109375,-0.1993408203125,0.0523681640625,-0.6103515625,-0.9155272841453552,0.6103515625,15
1734786594.594478,-0.9481201171875,-0.1785888671875,0.080810546875,0.1831054538488388,-1.4038084745407104,-0.9155272841453552,15
1734786594.715372,-0.97509765625,-0.1856689453125,0.065185546875,2.685546636581421,4.69970703125,-0.54931640625,15
1734786594.8344016,-0.94873046875,-0.1915283203125,0.0626220703125,0.4272460639476776,0.2441406100988388,-2.3193359375,15
1734786594.9545653,-0.9200439453125,-0.1744384765625,0.0614013671875,-0.9155272841453552,-3.479003667831421,-5.981444835662842,15
1734786595.0741448,-0.854736328125,-0.121826171875,0.013916015625,5.676269054412842,-14.038084983825684,-16.54052734375,15
1734786595.1944559,-0.477783203125,-0.141845703125,0.052978515625,-8.48388671875,-5.065917491912842,-7.141112804412842,15
1734786595.3308575,-0.8363037109375,-0.0389404296875,-0.0823974609375,4.21142578125,-20.568845748901367,-22.766111373901367,15
1734786595.4985275,-0.9130859375,-0.069091796875,-0.052978515625,0.8544921278953552,-22.033689498901367,-9.6435546875,15
1734786595.554516,-1.2203369140625,-0.0791015625,-0.046875,-13.610838890075684,3.662109136581421,0.2441406100988388,15
1734786595.6778896,-1.1632080078125,-0.1181640625,-0.026123046875,-14.221190452575684,33.26416015625,19.10400390625,15
1734786595.7945964,-1.3397216796875,-0.1151123046875,0.0648193359375,-2.197265625,-1.6479490995407104,0.7934569716453552,15
1734786595.9168398,-1.6644287109375,-0.1385498046875,-0.0419921875,12.878417015075684,-11.169432640075684,3.845214605331421,15
1734786596.0349944,-1.26220703125,-0.1417236328125,0.028076171875,-7.263183116912842,-4.8828125,-13.671874046325684,15
1734786596.1544719,-1.126708984375,-0.10400390625,0.0048828125,-4.94384765625,5.798339366912842,0.7324218153953552,15
1734786596.2751465,-0.9896240234375,-0.0775146484375,0.01611328125,-2.624511480331421,10.009765625,5.493163585662842,15
1734786596.3950195,-0.68701171875,-0.0888671875,0.03369140625,-1.5258787870407104,10.009765625,3.051757574081421,15
1734786596.5153189,-0.5274658203125,-0.082763671875,-0.0076904296875,-9.033203125,36.7431640625,27.954099655151367,15
1734786596.6346667,-0.83740234375,-0.1258544921875,0.0921630859375,12.573241233825684,20.446775436401367,13.916014671325684,15
1734786596.7549667,-0.8563232421875,-0.184814453125,0.142578125,-11.718749046325684,23.437498092651367,8.6669921875,15
1734786596.8737137,-1.016357421875,-0.157470703125,0.11572265625,0.7934569716453552,-4.33349609375,4.33349609375,15
1734786596.994042,-0.9302978515625,-0.199951171875,0.099853515625,7.263183116912842,-6.347655773162842,3.479003667831421,15
1734786597.5455358,-0.92529296875,-0.1978759765625,0.144287109375,7.202147960662842,-2.13623046875,5.371093273162842,16
1734786597.550091,-0.9482421875,-0.2313232421875,0.0928955078125,1.15966796875,1.9531248807907104,0.9155272841453552,16
1734786597.5520854,-0.97265625,-0.227294921875,0.085693359375,1.4038084745407104,3.051757574081421,2.44140625,16
1734786597.5550845,-0.9566650390625,-0.227294921875,0.107421875,0.1831054538488388,2.807616949081421,0.8544921278953552,16
1734786597.5948467,-0.9398193359375,-0.22412109375,0.1041259765625,-4.638671875,0.7934569716453552,-0.2441406100988388,16
1734786597.7153904,-0.9600830078125,-0.2286376953125,0.1214599609375,-0.1831054538488388,3.112792730331421,4.08935546875,16
1734786597.8346956,-0.949951171875,-0.23974609375,0.1241455078125,1.9531248807907104,1.9531248807907104,3.967284917831421,16
1734786597.9549365,-0.9586181640625,-0.24609375,0.1141357421875,-3.356933355331421,0.3662109076976776,0.7324218153953552,16
1734786598.0744293,-0.939453125,-0.240234375,0.111328125,-5.065917491912842,0.30517578125,0.7934569716453552,16
1734786598.194881,-0.955810546875,-0.2503662109375,0.132568359375,-8.544921875,-1.5869139432907104,-1.7700194120407104,16
1734786598.3149102,-0.97021484375,-0.249267578125,0.125,-5.493163585662842,-2.3193359375,-0.4882812201976776,16
1734786598.4348412,-0.977294921875,-0.21923828125,0.119873046875,-3.479003667831421,-4.21142578125,-1.8920897245407104,16
1734786598.555045,-0.9512939453125,-0.2255859375,0.11767578125,-0.54931640625,-3.417968511581421,-3.051757574081421,16
1734786598.6744103,-0.9302978515625,-0.1947021484375,0.09716796875,4.2724609375,-3.784179449081421,-6.286620616912842,16
1734786598.79465,-0.8465576171875,-0.1710205078125,0.0657958984375,8.7890625,-21.972654342651367,-23.620603561401367,16
1734786598.914898,-0.46826171875,-0.12451171875,0.015625,-2.624511480331421,1.15966796875,-16.6015625,16
1734786599.0349147,-0.921875,-0.0032958984375,0.0064697265625,8.60595703125,-36.92626953125,-13.305663108825684,16
1734786599.155062,-0.9764404296875,-0.0924072265625,0.0069580078125,7.324218273162842,2.197265625,5.371093273162842,16
1734786599.2749672,-1.22216796875,-0.1705322265625,-0.0023193359375,-2.929687261581421,14.770506858825684,7.934569835662842,16
1734786599.3944364,-1.244384765625,-0.2203369140625,0.076171875,-11.352538108825684,17.39501953125,15.502928733825684,16
1734786599.5142198,-1.5213623046875,-0.2425537109375,0.052734375,5.432128429412842,-14.038084983825684,3.295898199081421,16
1734786599.6557343,-1.6339111328125,-0.2481689453125,-0.039794921875,0.1220703050494194,26.977537155151367,10.131834983825684,16
1734786599.7551813,-1.169921875,-0.23193359375,0.03125,-15.686034202575684,6.530761241912842,1.0986328125,16
1734786599.875078,-0.7955322265625,-0.1866455078125,0.0596923828125,-11.413573265075684,2.0751953125,3.295898199081421,16
1734786599.994296,-0.7474365234375,-0.178466796875,0.0201416015625,-1.7089842557907104,-13.366698265075684,-8.36181640625,16
1734786600.1752017,-0.4552001953125,-0.11572265625,0.0037841796875,-0.30517578125,-5.432128429412842,-2.807616949081421,16
1734786600.2348738,-0.615478515625,-0.1591796875,0.042236328125,-9.09423828125,46.264644622802734,24.353025436401367,16
1734786600.3547044,-1.4259033203125,-0.1943359375,-0.07763671875,5.249022960662842,25.756834030151367,16.845703125,16
1734786600.4747396,-0.86328125,-0.224609375,0.123046875,8.97216796875,-19.34814453125,-8.4228515625,16
1734786601.0838156,-0.8421630859375,-0.21435546875,0.1199951171875,-10.864256858825684,17.822265625,3.417968511581421,17
1734786601.0852027,-0.9749755859375,-0.2099609375,0.0975341796875,-4.69970703125,0.4882812201976776,-1.5869139432907104,17
1734786601.0870872,-0.948974609375,-0.2352294921875,0.096923828125,-7.934569835662842,5.493163585662842,0.9765624403953552,17
1734786601.088615,-0.972900390625,-0.20556640625,0.10400390625,-1.4648436307907104,0.6713866591453552,3.356933355331421,17
1734786601.0896163,-0.95556640625,-0.2091064453125,0.1031494140625,-1.3427733182907104,-1.0986328125,0.2441406100988388,17
1734786601.194422,-0.94677734375,-0.22900390625,0.1058349609375,0.4272460639476776,0.6103515625,0.6103515625,17
1734786601.314557,-0.9451904296875,-0.233642578125,0.1234130859375,-1.9531248807907104,-1.3427733182907104,0.8544921278953552,17
1734786601.4347205,-0.94873046875,-0.223876953125,0.12841796875,-3.906249761581421,4.94384765625,2.38037109375,17
1734786601.5546396,-0.9613037109375,-0.2242431640625,0.1182861328125,-2.868652105331421,-0.6713866591453552,-0.1831054538488388,17
1734786601.6750636,-0.957763671875,-0.2244873046875,0.1248779296875,-1.7089842557907104,0.7934569716453552,-0.4272460639476776,17
1734786601.7944238,-0.931396484375,-0.2271728515625,0.1290283203125,-0.6713866591453552,-1.6479490995407104,-0.4272460639476776,17
1734786601.9140298,-0.9580078125,-0.2347412109375,0.1422119140625,-1.4648436307907104,-1.220703125,-0.1831054538488388,17
1734786602.0351381,-0.9468994140625,-0.2244873046875,0.13330078125,-2.44140625,-0.8544921278953552,0.4882812201976776,17
1734786602.1539824,-0.9337158203125,-0.2159423828125,0.110107421875,-1.7700194120407104,-4.2724609375,-3.906249761581421,17
1734786602.2738495,-0.8883056640625,-0.1951904296875,0.0849609375,-0.0610351525247097,-13.061522483825684,-12.573241233825684,17
1734786602.39492,-0.5323486328125,-0.134033203125,0.07568359375,-4.21142578125,-0.7934569716453552,-7.690429210662842,17
1734786602.5138357,-0.832763671875,-0.080810546875,-0.0009765625,7.019042491912842,-30.334470748901367,-14.770506858825684,17
1734786602.574348,-0.720703125,-0.0880126953125,0.0731201171875,23.193357467651367,-13.977049827575684,-4.7607421875,17
1734786602.6945791,-1.0643310546875,-0.182861328125,0.049560546875,16.41845703125,-19.59228515625,-18.5546875,17
1734786602.814382,-1.1138916015625,-0.1693115234375,0.033447265625,-1.03759765625,0.54931640625,-3.234863042831421,17
1734786602.9348204,-1.4908447265625,-0.2138671875,-0.061279296875,4.39453125,-7.263183116912842,9.27734375,17
1734786603.05505,-1.5792236328125,-0.154541015625,-0.078125,-4.08935546875,12.573241233825684,4.150390625,17
1734786603.174355,-1.3616943359375,-0.2196044921875,-0.0157470703125,-6.286620616912842,8.48388671875,6.042479991912842,17
1734786603.2946632,-1.167236328125,-0.211669921875,-0.001708984375,-8.6669921875,1.03759765625,4.57763671875,17
1734786603.4145653,-0.952880859375,-0.1722412109375,-0.005126953125,-8.30078125,-9.58251953125,1.5258787870407104,17
1734786603.5342953,-0.780517578125,-0.1339111328125,-0.0184326171875,0.4882812201976776,-13.122557640075684,-7.080077648162842,17
1734786603.6545691,-0.5638427734375,-0.1392822265625,-0.051025390625,-1.4038084745407104,-9.6435546875,3.784179449081421,17
1734786603.7743263,-0.575439453125,-0.1544189453125,0.048828125,0.54931640625,32.89794921875,21.972654342651367,17
1734786603.8946571,-1.2569580078125,-0.1500244140625,-0.022705078125,12.512206077575684,19.83642578125,8.7890625,17
1734786604.01392,-0.9263916015625,-0.25634765625,0.0665283203125,9.46044921875,-4.33349609375,-8.6669921875,17
1734786604.6019719,-0.8861083984375,-0.2025146484375,0.06591796875,2.624511480331421,18.4326171875,4.69970703125,18
1734786604.9094272,-0.967529296875,-0.2276611328125,0.0889892578125,2.563476324081421,2.868652105331421,1.3427733182907104,18
1734786604.9103358,-0.93994140625,-0.2105712890625,0.0750732421875,-3.234863042831421,4.33349609375,1.7089842557907104,18
1734786604.9125404,-0.9935302734375,-0.238037109375,0.0758056640625,-4.2724609375,-3.173827886581421,0.9765624403953552,18
1734786604.9144752,-0.9635009765625,-0.21826171875,0.07373046875,-2.25830078125,1.8310545682907104,2.38037109375,18
1734786604.9149745,-0.9716796875,-0.232666015625,0.08203125,-3.112792730331421,0.6103515625,1.5258787870407104,18
1734786604.9162543,-0.945556640625,-0.23486328125,0.098388671875,-5.737304210662842,1.7700194120407104,2.746581792831421,18
1734786604.9745514,-0.9471435546875,-0.225830078125,0.0931396484375,-6.286620616912842,-1.8310545682907104,1.220703125,18
1734786605.0942907,-0.970947265625,-0.2398681640625,0.0936279296875,-7.019042491912842,-5.737304210662842,-1.0986328125,18
1734786605.2143257,-0.9818115234375,-0.220947265625,0.0859375,-4.638671875,-3.784179449081421,0.2441406100988388,18
1734786605.334852,-0.955078125,-0.244873046875,0.098876953125,-4.39453125,-0.6713866591453552,2.25830078125,18
1734786605.4544713,-0.9366455078125,-0.203369140625,0.06298828125,-4.08935546875,-1.6479490995407104,-1.3427733182907104,18
1734786605.574322,-0.95703125,-0.2193603515625,0.07568359375,-0.9155272841453552,-5.920409679412842,-4.08935546875,18
1734786605.6947196,-0.9962158203125,-0.2315673828125,0.0692138671875,-0.1831054538488388,-3.845214605331421,-2.38037109375,18
1734786605.873872,-0.97265625,-0.1976318359375,0.075927734375,0.0,0.7324218153953552,-0.9765624403953552,18
1734786605.9343328,-0.9732666015625,-0.2149658203125,0.0594482421875,3.967284917831421,2.563476324081421,0.30517578125,18
1734786606.0548167,-0.9842529296875,-0.2354736328125,0.0645751953125,3.234863042831421,-2.01416015625,0.2441406100988388,18
1734786606.1743326,-0.953857421875,-0.2283935546875,0.066162109375,-0.0610351525247097,0.0610351525247097,-1.4648436307907104,18
1734786606.2942965,-0.8828125,-0.1944580078125,0.04296875,1.4038084745407104,-12.634276390075684,-12.207030296325684,18
1734786606.4148953,-0.7584228515625,-0.1251220703125,0.0279541015625,3.967284917831421,-1.3427733182907104,-18.9208984375,18
1734786606.5345838,-0.46435546875,-0.1361083984375,0.098388671875,-5.493163585662842,16.66259765625,-0.6103515625,18
1734786606.6534133,-0.7900390625,-0.064208984375,0.0235595703125,3.173827886581421,2.3193359375,1.220703125,18
1734786606.7745776,-1.138427734375,-0.1341552734375,0.043701171875,-0.30517578125,-6.286620616912842,3.784179449081421,18
1734786606.8942041,-1.22216796875,-0.195556640625,0.0533447265625,-1.8310545682907104,5.920409679412842,5.859374523162842,18
1734786607.0147245,-1.40625,-0.2064208984375,0.1134033203125,-10.620116233825684,-7.751464366912842,-6.835937023162842,18
1734786607.1349325,-1.66064453125,-0.2506103515625,0.01416015625,9.09423828125,11.596678733825684,5.676269054412842,18
1734786607.254904,-1.360107421875,-0.2052001953125,0.0633544921875,2.685546636581421,0.6103515625,1.8920897245407104,18
1734786607.3745139,-1.08447265625,-0.21240234375,0.0501708984375,-8.9111328125,-4.5166015625,0.6103515625,18
1734786607.4949234,-0.9749755859375,-0.1683349609375,0.0599365234375,-6.835937023162842,-1.0986328125,3.662109136581421,18
1734786607.6145136,-0.9296875,-0.1551513671875,0.0001220703125,2.197265625,-10.986327171325684,-3.601073980331421,18
1734786608.1305563,-0.42724609375,-0.071533203125,-0.0029296875,2.746581792831421,18.73779296875,9.521484375,19
1734786608.1320586,-0.660400390625,-0.262451171875,0.0279541015625,-3.967284917831421,67.7490234375,43.212886810302734,19
1734786608.133512,-1.2275390625,-0.1707763671875,0.0230712890625,-13.549803733825684,63.232418060302734,25.939939498901367,19
1734786608.1354754,-0.9742431640625,-0.268798828125,0.1817626953125,9.8876953125,-46.020503997802734,-15.686034202575684,19
1734786608.214294,-0.825927734375,-0.2886962890625,0.165771484375,-3.479003667831421,2.0751953125,2.25830078125,19
1734786608.335297,-0.993896484375,-0.2359619140625,0.1112060546875,3.234863042831421,1.7700194120407104,3.295898199081421,19
1734786608.45438,-0.965576171875,-0.314208984375,0.1163330078125,-1.15966796875,-2.44140625,1.9531248807907104,19
1734786608.5743587,-0.9241943359375,-0.2783203125,0.1343994140625,-4.21142578125,0.9765624403953552,-1.15966796875,19
1734786608.6943367,-0.94384765625,-0.26953125,0.13623046875,-4.69970703125,1.7089842557907104,-0.1220703050494194,19
1734786608.8145597,-0.95849609375,-0.2713623046875,0.1231689453125,-2.50244140625,0.7324218153953552,0.30517578125,19
1734786608.9352002,-0.925537109375,-0.2738037109375,0.1357421875,-0.1220703050494194,10.192870140075684,0.1220703050494194,19
1734786609.0543694,-0.955810546875,-0.2725830078125,0.144775390625,-1.2817381620407104,-3.601073980331421,-0.54931640625,19
1734786609.1742723,-0.910400390625,-0.259521484375,0.1463623046875,-1.9531248807907104,-0.7324218153953552,-1.4038084745407104,19
1734786609.2939644,-0.9051513671875,-0.24267578125,0.1170654296875,-4.21142578125,-9.765625,-10.192870140075684,19
1734786609.4143531,-0.695556640625,-0.1614990234375,0.0592041015625,-2.868652105331421,-7.629394054412842,-11.779784202575684,19
1734786609.5346158,-0.57763671875,-0.166015625,0.069091796875,-5.371093273162842,-9.033203125,-11.352538108825684,19
1734786609.6541138,-0.66943359375,-0.1295166015625,0.13134765625,-3.051757574081421,12.756346702575684,-12.145995140075684,19
1734786609.7744203,-1.0908203125,-0.14453125,0.0982666015625,14.892577171325684,-27.282712936401367,-11.169432640075684,19
1734786609.9542902,-1.16064453125,-0.224365234375,0.0455322265625,6.225585460662842,-17.27294921875,-2.3193359375,19
1734786610.0139658,-1.1180419921875,-0.23828125,0.0758056640625,-1.8310545682907104,18.37158203125,7.080077648162842,19
1734786610.1341007,-1.30712890625,-0.1539306640625,0.048583984375,4.8828125,-9.21630859375,0.9765624403953552,19
1734786610.255099,-1.469970703125,-0.3406982421875,0.0704345703125,7.263183116912842,23.315427780151367,18.98193359375,19
1734786610.3746793,-1.231201171875,-0.1719970703125,0.091064453125,-5.676269054412842,3.356933355331421,-1.2817381620407104,19
1734786610.4945226,-1.0087890625,-0.21484375,0.0816650390625,-7.507323741912842,1.4038084745407104,-8.056640625,19
1734786610.67454,-0.8382568359375,-0.1663818359375,0.0972900390625,-8.544921875,-13.671874046325684,-15.319823265075684,19
1734786610.7349803,-0.6673583984375,-0.078125,0.05517578125,-2.624511480331421,-13.366698265075684,-18.310546875,19
1734786610.8547084,-0.4227294921875,-0.072021484375,-0.0147705078125,-11.230467796325684,52.246089935302734,37.4755859375,19
1734786610.9742413,-1.2890625,0.00830078125,-0.067138671875,31.188962936401367,-65.673828125,-18.61572265625,19
1734786611.0952713,-0.8194580078125,-0.11181640625,0.048095703125,-8.23974609375,6.225585460662842,-8.30078125,19
1734786611.6510801,-1.080078125,-0.1409912109375,0.08447265625,-3.417968511581421,11.901854515075684,-6.530761241912842,20
1734786611.653565,-0.96044921875,-0.1072998046875,0.1041259765625,23.620603561401367,6.164550304412842,4.08935546875,20
1734786611.6545675,-1.0584716796875,-0.1817626953125,0.044921875,-5.310058116912842,0.6103515625,3.967284917831421,20
1734786611.6565657,-1.033447265625,-0.030517578125,0.0631103515625,13.183592796325684,13.732909202575684,8.36181640625,20
1734786611.6942728,-0.94189453125,-0.142822265625,0.0517578125,-3.845214605331421,0.7934569716453552,2.38037109375,20
1734786611.8143506,-0.95947265625,-0.1068115234375,0.04248046875,-14.831542015075684,-7.934569835662842,3.601073980331421,20
1734786611.9343233,-1.11767578125,-0.086181640625,0.0457763671875,2.807616949081421,-8.48388671875,0.9765624403953552,20
1734786612.0547876,-0.9505615234375,-0.145751953125,0.1092529296875,6.408690929412842,-4.7607421875,0.1831054538488388,20
1734786612.1739078,-0.9886474609375,-0.177001953125,0.0804443359375,-4.150390625,-6.164550304412842,5.187987804412842,20
1734786612.294065,-1.015869140625,-0.1595458984375,0.0804443359375,-4.8828125,-0.6713866591453552,6.652831554412842,20
1734786612.4142945,-0.994384765625,-0.12890625,0.0714111328125,-1.4038084745407104,1.8310545682907104,3.173827886581421,20
1734786612.5940115,-0.9599609375,-0.168701171875,0.07080078125,2.990722417831421,-0.2441406100988388,-0.9765624403953552,20
1734786612.654213,-0.896728515625,-0.161376953125,0.0623779296875,1.8310545682907104,-7.690429210662842,-7.080077648162842,20
1734786612.7745354,-0.6710205078125,-0.1171875,0.034912109375,-2.624511480331421,-4.94384765625,-8.48388671875,20
1734786612.894454,-0.7298583984375,-0.0804443359375,-0.0020751953125,1.5869139432907104,17.7001953125,-2.13623046875,20
1734786613.014415,-0.82373046875,-0.1136474609375,0.020263671875,1.15966796875,1.7700194120407104,0.6713866591453552,20
1734786613.1361382,-0.98486328125,-0.11376953125,0.025146484375,-9.33837890625,3.662109136581421,6.835937023162842,20
1734786613.2538168,-1.2081298828125,-0.15576171875,0.000244140625,-7.507323741912842,-3.173827886581421,9.58251953125,20
1734786613.3746665,-1.1961669921875,-0.14404296875,0.088623046875,0.3662109076976776,-12.695311546325684,-7.385253429412842,20
1734786613.494898,-1.7156982421875,-0.2100830078125,0.0264892578125,7.751464366912842,2.25830078125,-1.3427733182907104,20
1734786613.6137788,-1.393310546875,-0.20654296875,0.0277099609375,0.9155272841453552,7.202147960662842,-1.03759765625,20
1734786613.7455487,-1.1484375,-0.17724609375,0.0361328125,-5.187987804412842,2.929687261581421,-2.807616949081421,20
1734786613.860933,-0.8529052734375,-0.1376953125,0.0687255859375,-6.652831554412842,5.310058116912842,-3.845214605331421,20
1734786613.9148793,-0.6859130859375,-0.100830078125,0.0364990234375,-2.868652105331421,6.896972179412842,-2.990722417831421,20
1734786614.034827,-0.6751708984375,-0.0523681640625,-0.006103515625,-1.9531248807907104,5.737304210662842,2.990722417831421,20
1734786614.1545362,-0.722900390625,-0.1414794921875,0.0047607421875,-10.803221702575684,14.892577171325684,12.145995140075684,20
1734786614.274271,-1.05859375,-0.044921875,0.016357421875,12.329100608825684,-30.822751998901367,-1.3427733182907104,20
1734786614.3942811,-0.8516845703125,-0.198486328125,0.12451171875,13.183592796325684,-28.015134811401367,0.3662109076976776,20
1734786614.5142052,-0.9599609375,-0.1842041015625,0.044189453125,4.94384765625,10.070799827575684,9.46044921875,20
1734786615.1771371,-0.9986572265625,-0.1795654296875,0.0428466796875,1.4038084745407104,1.2817381620407104,1.0986328125,21
1734786615.1795342,-0.9783935546875,-0.1903076171875,0.0438232421875,-1.4038084745407104,5.737304210662842,2.50244140625,21
1734786615.181539,-0.9100341796875,-0.18798828125,0.0543212890625,0.2441406100988388,-1.8920897245407104,1.220703125,21
1734786615.1820333,-0.9984130859375,-0.2001953125,0.0721435546875,1.3427733182907104,-0.3662109076976776,-0.3662109076976776,21
1734786615.183033,-0.9710693359375,-0.2039794921875,0.064697265625,-3.967284917831421,2.685546636581421,0.0,21
1734786615.2341082,-0.96337890625,-0.19287109375,0.0484619140625,-4.57763671875,-0.7324218153953552,-0.1220703050494194,21
1734786615.3547666,-0.9617919921875,-0.19140625,0.0504150390625,-2.25830078125,-1.03759765625,0.6713866591453552,21
1734786615.5349426,-0.9813232421875,-0.196533203125,0.0584716796875,-1.4648436307907104,0.3662109076976776,1.0986328125,21
1734786615.5946321,-0.9833984375,-0.19140625,0.054443359375,-0.4272460639476776,0.7934569716453552,0.9155272841453552,21
1734786615.714525,-0.962890625,-0.196044921875,0.04638671875,-4.150390625,-0.3662109076976776,-0.3662109076976776,21
1734786615.834597,-0.9818115234375,-0.18798828125,0.0494384765625,-2.990722417831421,-4.5166015625,-1.2817381620407104,21
1734786615.9540706,-0.9764404296875,-0.1868896484375,0.0447998046875,0.2441406100988388,-1.5258787870407104,1.4038084745407104,21
1734786616.073913,-0.9615478515625,-0.1839599609375,0.0421142578125,2.13623046875,-0.7324218153953552,-0.54931640625,21
1734786616.193953,-0.8807373046875,-0.1602783203125,0.024169921875,4.7607421875,-10.437010765075684,-12.268065452575684,21
1734786616.3147898,-0.4783935546875,-0.1102294921875,0.02490234375,-3.662109136581421,3.417968511581421,-8.056640625,21
1734786616.4340317,-0.8162841796875,-0.05908203125,-0.0408935546875,12.329100608825684,-17.7001953125,-14.343260765075684,21
1734786616.5545006,-0.984619140625,-0.1759033203125,-0.0640869140625,1.4038084745407104,-5.737304210662842,1.4038084745407104,21
1734786616.6743917,-0.9371337890625,-0.09619140625,-0.0048828125,-1.6479490995407104,6.530761241912842,14.282225608825684,21
1734786616.8538468,-1.1986083984375,-0.190673828125,0.0,4.08935546875,3.601073980331421,9.09423828125,21
1734786616.9139557,-1.2921142578125,-0.183349609375,-0.0025634765625,7.080077648162842,-4.82177734375,-3.356933355331421,21
1734786617.0350413,-1.5933837890625,-0.232666015625,0.0050048828125,11.108397483825684,-9.82666015625,-3.662109136581421,21
1734786617.15439,-1.310302734375,-0.2027587890625,-0.0389404296875,-2.25830078125,13.854979515075684,2.44140625,21
1734786617.2745934,-1.2442626953125,-0.2452392578125,-0.0682373046875,-12.207030296325684,-13.610838890075684,-6.347655773162842,21
1734786617.3943627,-0.8070068359375,-0.16748046875,0.01904296875,-8.48388671875,-14.953612327575684,0.3662109076976776,21
1734786617.5147674,-0.9190673828125,-0.0421142578125,-0.123046875,10.375975608825684,-48.278804779052734,-30.456541061401367,21
1734786617.6345398,-0.561767578125,-0.0660400390625,-0.071044921875,-15.380858421325684,44.372554779052734,31.127927780151367,21
1734786617.7547002,-0.675537109375,-0.080322265625,-0.02734375,8.7890625,11.596678733825684,8.30078125,21
1734786617.8741984,-1.170166015625,-0.1063232421875,-0.0325927734375,18.798828125,-16.4794921875,-2.746581792831421,21
1734786617.9942255,-0.91259765625,-0.2584228515625,0.02978515625,1.03759765625,1.3427733182907104,0.1220703050494194,21
1734786618.114591,-0.986572265625,-0.1800537109375,0.011474609375,-9.70458984375,10.070799827575684,6.103515148162842,21
1734786618.6876512,-0.944580078125,-0.171630859375,0.0489501953125,-2.929687261581421,2.868652105331421,3.479003667831421,22
1734786618.6898866,-0.987548828125,-0.19091796875,0.0533447265625,-3.356933355331421,3.051757574081421,-0.1831054538488388,22
1734786618.6903856,-0.966064453125,-0.1983642578125,0.0531005859375,-4.5166015625,0.7324218153953552,-0.7324218153953552,22
1734786618.691763,-0.9642333984375,-0.1822509765625,0.0474853515625,-6.469726085662842,2.25830078125,-0.1831054538488388,22
1734786618.7140353,-0.968505859375,-0.1851806640625,0.0452880859375,-1.8310545682907104,0.6103515625,1.220703125,22
1734786618.8396645,-0.9765625,-0.1990966796875,0.0460205078125,-1.7700194120407104,1.0986328125,1.6479490995407104,22
1734786618.9541059,-0.9775390625,-0.197021484375,0.0484619140625,-4.638671875,2.868652105331421,1.7700194120407104,22
1734786619.0737376,-0.97607421875,-0.184326171875,0.0518798828125,-0.4882812201976776,4.57763671875,2.44140625,22
1734786619.1968448,-0.9560546875,-0.195068359375,0.071533203125,0.0610351525247097,3.234863042831421,1.5869139432907104,22
1734786619.3155115,-0.9412841796875,-0.199462890625,0.0777587890625,0.1220703050494194,-0.2441406100988388,0.2441406100988388,22
1734786619.4337504,-0.9571533203125,-0.2081298828125,0.076171875,-1.0986328125,1.5869139432907104,-0.0610351525247097,22
1734786619.557872,-0.951171875,-0.203857421875,0.052978515625,-1.4648436307907104,-3.479003667831421,-1.8920897245407104,22
1734786619.6745505,-0.8707275390625,-0.1500244140625,0.0257568359375,3.479003667831421,-15.686034202575684,-10.681151390075684,22
1734786619.794631,-0.6986083984375,-0.1121826171875,0.0128173828125,0.9155272841453552,-16.05224609375,-15.075682640075684,22
1734786619.9136274,-0.583984375,-0.0667724609375,0.070068359375,-0.2441406100988388,-60.363765716552734,-20.263669967651367,22
1734786620.0341022,-1.0233154296875,-0.086669921875,0.0001220703125,10.925292015075684,6.164550304412842,7.202147960662842,22
1734786620.153818,-1.12548828125,-0.1297607421875,-0.0159912109375,11.108397483825684,13.366698265075684,10.864256858825684,22
1734786620.279787,-1.069091796875,-0.202880859375,-0.0216064453125,3.845214605331421,22.644041061401367,21.545408248901367,22
1734786620.3944545,-1.306884765625,-0.29248046875,-0.0380859375,-9.70458984375,-3.845214605331421,8.30078125,22
1734786620.5144656,-1.731201171875,-0.2659912109375,-0.0400390625,-1.6479490995407104,-20.751951217651367,-21.240232467651367,22
1734786620.6348312,-1.2896728515625,-0.2652587890625,0.008056640625,-4.0283203125,8.4228515625,-6.652831554412842,22
1734786620.7542937,-1.198486328125,-0.1837158203125,-0.004638671875,-8.72802734375,-3.784179449081421,-7.690429210662842,22
1734786620.8743007,-1.087158203125,-0.1512451171875,-0.0218505859375,-3.234863042831421,16.7236328125,-1.5258787870407104,22
1734786620.9941328,-0.8096923828125,-0.083740234375,0.0225830078125,11.840819358825684,3.662109136581421,-28.625486373901367,22
1734786621.1148074,-0.4986572265625,-0.1031494140625,-0.0137939453125,-2.25830078125,26.733396530151367,19.04296875,22
1734786621.2347116,-0.6103515625,-0.14453125,0.0377197265625,4.150390625,10.925292015075684,10.498045921325684,22
1734786621.3541894,-0.815673828125,-0.14892578125,0.1256103515625,-5.737304210662842,33.5693359375,13.916014671325684,22
1734786621.474175,-1.0731201171875,-0.2109375,0.0404052734375,3.295898199081421,10.070799827575684,6.530761241912842,22
1734786621.5944917,-1.032958984375,-0.174072265625,0.0760498046875,-1.7700194120407104,-14.465331077575684,-1.4648436307907104,22
1734786622.2130039,-0.9227294921875,-0.1898193359375,0.1080322265625,-1.03759765625,8.6669921875,3.906249761581421,23
1734786622.2145052,-0.9427490234375,-0.1884765625,0.09228515625,0.4882812201976776,2.868652105331421,-1.7700194120407104,23
1734786622.2167618,-0.956298828125,-0.2137451171875,0.09326171875,2.197265625,4.21142578125,-0.30517578125,23
1734786622.218288,-0.9556884765625,-0.2103271484375,0.121826171875,-0.30517578125,4.8828125,1.8310545682907104,23
1734786622.219289,-0.928955078125,-0.2037353515625,0.111572265625,-3.906249761581421,3.784179449081421,0.8544921278953552,23
1734786622.3144093,-0.9600830078125,-0.1932373046875,0.1009521484375,-0.8544921278953552,-0.1220703050494194,2.44140625,23
1734786622.4341395,-0.9713134765625,-0.213623046875,0.101318359375,-4.45556640625,0.2441406100988388,0.30517578125,23
1734786622.5541286,-0.938720703125,-0.205810546875,0.1134033203125,-1.8310545682907104,0.2441406100988388,4.08935546875,23
1734786622.674175,-0.947509765625,-0.18994140625,0.1131591796875,-3.356933355331421,1.5869139432907104,0.8544921278953552,23
1734786622.7946622,-0.96142578125,-0.214599609375,0.12158203125,-2.929687261581421,2.990722417831421,1.3427733182907104,23
1734786622.9139304,-0.927734375,-0.21240234375,0.1187744140625,-1.5258787870407104,-0.4272460639476776,0.4272460639476776,23
1734786623.033997,-0.95556640625,-0.2130126953125,0.1195068359375,0.30517578125,-5.126952648162842,-1.220703125,23
1734786623.153875,-0.9488525390625,-0.2071533203125,0.108642578125,1.7089842557907104,-5.615233898162842,-1.8310545682907104,23
1734786623.2750893,-0.9312744140625,-0.2252197265625,0.102294921875,0.30517578125,-8.30078125,-6.347655773162842,23
1734786623.394475,-0.8580322265625,-0.148681640625,0.0322265625,4.94384765625,-21.606443405151367,-15.686034202575684,23
1734786623.5139375,-0.4700927734375,-0.1273193359375,0.0003662109375,3.784179449081421,-19.59228515625,-21.057126998901367,23
1734786623.6336334,-0.845703125,-0.0333251953125,-0.0672607421875,14.343260765075684,-25.207517623901367,-12.207030296325684,23
1734786623.7543018,-0.969482421875,-0.072998046875,-0.125,3.906249761581421,-29.174802780151367,-3.845214605331421,23
1734786623.8742342,-0.9920654296875,-0.105224609375,-0.059814453125,1.15966796875,-0.2441406100988388,10.009765625,23
1734786623.9940312,-1.1571044921875,-0.15771484375,-0.070068359375,-1.5869139432907104,7.812499523162842,12.512206077575684,23
1734786624.1142218,-1.4371337890625,-0.2032470703125,-0.0302734375,-2.0751953125,-3.601073980331421,8.9111328125,23
1734786624.2342525,-1.66015625,-0.18701171875,-0.1190185546875,7.019042491912842,-5.493163585662842,-2.25830078125,23
1734786624.3547711,-1.1778564453125,-0.19970703125,-0.0341796875,-14.770506858825684,12.084959983825684,0.9155272841453552,23
1734786624.4746807,-1.15380859375,-0.243408203125,-0.0885009765625,-8.30078125,-4.7607421875,4.94384765625,23
1734786624.5942605,-0.9656982421875,-0.1761474609375,-0.0052490234375,-4.2724609375,-3.662109136581421,3.112792730331421,23
1734786624.714315,-0.789306640625,-0.15869140625,-0.0260009765625,-4.39453125,10.498045921325684,4.7607421875,23
1734786624.8341486,-0.507080078125,-0.1058349609375,-0.0487060546875,-0.3662109076976776,22.033689498901367,18.85986328125,23
1734786624.9548476,-0.6092529296875,-0.173828125,-0.0162353515625,6.713866710662842,24.291990280151367,19.4091796875,23
1734786625.0743308,-1.213623046875,-0.1849365234375,-0.038818359375,4.2724609375,-19.287109375,-5.187987804412842,23
1734786625.194661,-0.8765869140625,-0.2408447265625,0.0853271484375,10.437010765075684,6.347655773162842,-5.065917491912842,23
1734786625.7390487,-0.9337158203125,-0.2777099609375,0.0379638671875,2.685546636581421,16.845703125,2.01416015625,24
1734786625.740952,-0.9410400390625,-0.2884521484375,0.0740966796875,0.1220703050494194,0.6713866591453552,0.9765624403953552,24
1734786625.7424767,-0.958251953125,-0.263427734375,0.0562744140625,-0.8544921278953552,-0.4882812201976776,3.967284917831421,24
1734786625.7440503,-0.967529296875,-0.24609375,0.0687255859375,-4.33349609375,-1.4038084745407104,-1.9531248807907104,24
1734786625.7941823,-0.9676513671875,-0.232177734375,0.0555419921875,1.0986328125,4.21142578125,-2.929687261581421,24
1734786625.9138281,-0.969970703125,-0.260498046875,0.0703125,1.03759765625,2.807616949081421,-4.69970703125,24
1734786626.038319,-0.9683837890625,-0.245361328125,0.079833984375,-1.6479490995407104,-3.784179449081421,0.0610351525247097,24
1734786626.157687,-0.951904296875,-0.2255859375,0.072021484375,-5.615233898162842,-2.197265625,-3.295898199081421,24
1734786626.2761252,-0.9527587890625,-0.2408447265625,0.072021484375,-8.85009765625,-2.624511480331421,-0.0610351525247097,24
1734786626.3974094,-0.9599609375,-0.22607421875,0.08642578125,-5.798339366912842,-2.3193359375,-1.7700194120407104,24
1734786626.5163324,-0.98974609375,-0.203369140625,0.076171875,0.6713866591453552,-0.4882812201976776,-0.7934569716453552,24
1734786626.6383588,-0.9658203125,-0.2215576171875,0.091796875,2.13623046875,0.1831054538488388,0.6103515625,24
1734786626.7539496,-0.933349609375,-0.212646484375,0.0936279296875,5.187987804412842,6.225585460662842,0.4882812201976776,24
1734786626.8745258,-0.9422607421875,-0.2330322265625,0.099609375,5.859374523162842,3.173827886581421,0.0610351525247097,24
1734786626.9940343,-0.888427734375,-0.1795654296875,0.048828125,12.756346702575684,-6.530761241912842,-6.835937023162842,24
1734786627.1148543,-0.611572265625,-0.1441650390625,0.061767578125,8.60595703125,4.45556640625,-6.225585460662842,24
1734786627.2346222,-0.662841796875,-0.1614990234375,0.047607421875,14.282225608825684,-15.380858421325684,-14.709471702575684,24
1734786627.3544884,-0.9981689453125,-0.1968994140625,-0.00244140625,-7.446288585662842,-7.690429210662842,-14.831542015075684,24
1734786627.413925,-1.123046875,-0.1195068359375,0.0072021484375,-9.521484375,-34.0576171875,-23.559568405151367,24
1734786627.5343232,-1.15771484375,-0.1268310546875,0.0133056640625,-7.934569835662842,-15.136717796325684,-12.695311546325684,24
1734786627.65424,-1.223876953125,-0.0643310546875,-0.0438232421875,-3.662109136581421,-10.070799827575684,-8.36181640625,24
1734786627.7777047,-1.4644775390625,-0.074951171875,-0.041015625,12.878417015075684,17.02880859375,14.953612327575684,24
1734786627.898381,-1.3704833984375,-0.1097412109375,-0.064697265625,7.263183116912842,9.1552734375,9.58251953125,24
1734786628.0162506,-1.0816650390625,-0.11865234375,-0.03369140625,-6.774901866912842,6.164550304412842,2.807616949081421,24
1734786628.134725,-1.0450439453125,-0.1395263671875,-0.0264892578125,-4.69970703125,1.03759765625,6.347655773162842,24
1734786628.2567039,-0.908935546875,-0.1119384765625,-0.0313720703125,-1.7700194120407104,0.6713866591453552,4.94384765625,24
1734786628.3743572,-0.5323486328125,-0.0899658203125,-0.029052734375,-5.798339366912842,15.441893577575684,2.38037109375,24
1734786628.4941015,-0.8681640625,0.052001953125,-0.1214599609375,-2.685546636581421,13.122557640075684,4.94384765625,24
1734786628.6145902,-1.0009765625,-0.1146240234375,-0.0489501953125,10.375975608825684,-35.64453125,-4.39453125,24
1734786628.7342172,-0.7034912109375,-0.2171630859375,0.1182861328125,-18.49365234375,0.30517578125,5.493163585662842,24
1734786629.2460234,-1.0108642578125,-0.0653076171875,-0.0235595703125,2.990722417831421,24.536130905151367,4.39453125,25
1734786629.247015,-1.045166015625,-0.154296875,0.0108642578125,2.624511480331421,-4.94384765625,-4.0283203125,25
1734786629.248032,-0.9580078125,-0.202880859375,0.032958984375,1.5869139432907104,2.01416015625,0.1831054538488388,25
1734786629.2498927,-0.9765625,-0.163330078125,0.03466796875,-2.13623046875,3.601073980331421,2.38037109375,25
1734786629.3351212,-0.98193359375,-0.178955078125,0.05322265625,-2.868652105331421,4.69970703125,2.563476324081421,25
1734786629.454286,-0.9798583984375,-0.182373046875,0.0465087890625,-2.13623046875,2.3193359375,4.33349609375,25
1734786629.573831,-0.95751953125,-0.185302734375,0.0633544921875,-2.807616949081421,2.13623046875,4.0283203125,25
1734786629.6942096,-0.9638671875,-0.186767578125,0.053955078125,-3.723144292831421,-0.2441406100988388,0.9765624403953552,25
1734786629.8200958,-0.96142578125,-0.194091796875,0.0614013671875,-1.5869139432907104,-0.1831054538488388,2.197265625,25
1734786629.9345574,-0.9696044921875,-0.18798828125,0.05517578125,-2.01416015625,-0.6713866591453552,-0.54931640625,25
1734786630.054593,-0.9615478515625,-0.198974609375,0.0533447265625,-3.356933355331421,-1.8310545682907104,0.30517578125,25
1734786630.1776793,-0.9886474609375,-0.1761474609375,0.0496826171875,-5.554198741912842,-3.234863042831421,-0.9155272841453552,25
1734786630.2937884,-0.9345703125,-0.1806640625,0.0433349609375,-3.234863042831421,-5.737304210662842,-4.45556640625,25
1734786630.4137483,-0.8902587890625,-0.1534423828125,-0.0123291015625,-1.5869139432907104,-16.4794921875,-10.192870140075684,25
1734786630.5337913,-0.702392578125,-0.1175537109375,-0.00732421875,-2.807616949081421,-1.15966796875,-5.432128429412842,25
1734786630.653647,-0.6832275390625,-0.0841064453125,-0.005859375,2.807616949081421,-3.112792730331421,-10.192870140075684,25
1734786630.7747242,-1.072265625,-0.0699462890625,-0.0308837890625,3.723144292831421,-16.29638671875,-9.46044921875,25
