Timestamp,Accel X,Accel Y,Accel Z,Gyro X,Gyro Y,Gyro Z,Start Flag
1734786944.9427228,-0.880126953125,-0.330322265625,0.0859375,-0.3662109076976776,12.939452171325684,3.295898199081421,0
1734786945.45126,-0.9266357421875,-0.3455810546875,0.0841064453125,2.25830078125,3.479003667831421,-1.7700194120407104,0
1734786945.452325,-0.922607421875,-0.351318359375,0.092041015625,-1.4648436307907104,3.051757574081421,1.03759765625,0
1734786945.4534104,-0.96142578125,-0.3380126953125,0.08984375,-1.6479490995407104,3.479003667831421,1.7089842557907104,0
1734786945.4534104,-0.947509765625,-0.349365234375,0.1029052734375,-2.3193359375,-2.929687261581421,0.4882812201976776,0
1734786945.5421202,-0.913330078125,-0.347900390625,0.1163330078125,-1.5869139432907104,-0.4882812201976776,0.7934569716453552,0
1734786945.6620772,-0.9197998046875,-0.3436279296875,0.12109375,-2.01416015625,3.295898199081421,1.7700194120407104,0
1734786945.7818232,-0.9140625,-0.3470458984375,0.119873046875,-1.0986328125,-1.5869139432907104,-0.30517578125,0
1734786945.9021738,-0.9249267578125,-0.3575439453125,0.11474609375,-1.3427733182907104,-0.4882812201976776,-0.3662109076976776,0
1734786946.022233,-0.90625,-0.351806640625,0.110107421875,-1.15966796875,2.0751953125,1.4648436307907104,0
1734786946.2014773,-0.93212890625,-0.3455810546875,0.1092529296875,-1.03759765625,1.5869139432907104,1.8920897245407104,0
1734786946.2618747,-0.9267578125,-0.350830078125,0.1126708984375,-0.7324218153953552,0.7934569716453552,1.15966796875,0
1734786946.3816938,-0.892333984375,-0.349853515625,0.11767578125,-0.8544921278953552,-2.25830078125,-1.4038084745407104,0
1734786946.5023458,-0.8704833984375,-0.3128662109375,0.1043701171875,0.9765624403953552,-3.906249761581421,-10.009765625,0
1734786946.621678,-0.688720703125,-0.2628173828125,0.0780029296875,-4.94384765625,-6.896972179412842,-9.3994140625,0
1734786946.7422657,-0.6561279296875,-0.250244140625,0.0560302734375,-8.72802734375,-11.047362327575684,-12.695311546325684,0
1734786946.8623729,-0.8865966796875,-0.212158203125,-0.000732421875,3.295898199081421,-2.01416015625,-7.446288585662842,0
1734786946.982216,-1.015869140625,-0.2208251953125,0.0352783203125,17.7001953125,21.789548873901367,-7.507323741912842,0
1734786947.101711,-1.05322265625,-0.3365478515625,0.0810546875,6.225585460662842,41.503902435302734,6.103515148162842,0
1734786947.2218068,-0.9990234375,-0.318359375,0.1837158203125,2.25830078125,15.563963890075684,-13.671874046325684,0
1734786947.342466,-1.356201171875,-0.3248291015625,0.172607421875,0.9155272841453552,-14.404295921325684,-6.042479991912842,0
1734786947.461914,-1.5352783203125,-0.3797607421875,0.1492919921875,-9.033203125,1.4038084745407104,7.263183116912842,0
1734786947.582267,-1.1925048828125,-0.2940673828125,0.1546630859375,-8.7890625,-3.417968511581421,-3.479003667831421,0
1734786947.7026277,-0.9554443359375,-0.2838134765625,0.086181640625,-7.446288585662842,-9.94873046875,10.375975608825684,0
1734786947.8225517,-0.892333984375,-0.2628173828125,0.0762939453125,-7.812499523162842,-6.530761241912842,5.859374523162842,0
1734786947.9419978,-0.70458984375,-0.1597900390625,-0.0400390625,-0.6103515625,24.841306686401367,-4.0283203125,0
1734786948.0617726,-0.4364013671875,-0.138671875,0.0643310546875,-7.202147960662842,41.198726654052734,16.05224609375,0
1734786948.1817718,-1.011474609375,-0.334228515625,0.0830078125,8.11767578125,-40.771480560302734,-11.779784202575684,0
1734786948.301974,-0.853515625,-0.2083740234375,0.121337890625,1.5869139432907104,-6.347655773162842,3.662109136581421,0
1734786948.4220316,-1.0328369140625,-0.3072509765625,0.0635986328125,-3.540038824081421,-1.6479490995407104,6.408690929412842,0
1734786948.959974,-0.8782958984375,-0.2996826171875,0.1138916015625,-1.03759765625,-4.94384765625,1.0986328125,1
1734786948.9609752,-0.9561767578125,-0.282470703125,0.0662841796875,-1.2817381620407104,2.746581792831421,-1.15966796875,1
1734786948.9619758,-0.9439697265625,-0.3240966796875,0.080322265625,-0.9155272841453552,-3.295898199081421,-3.112792730331421,1
1734786948.9619758,-0.9613037109375,-0.2864990234375,0.0560302734375,-2.929687261581421,-1.2817381620407104,4.5166015625,1
1734786949.0214424,-0.9322509765625,-0.295166015625,0.0594482421875,-1.7089842557907104,2.990722417831421,0.8544921278953552,1
1734786949.1419168,-0.9461669921875,-0.2945556640625,0.0721435546875,-3.234863042831421,1.5258787870407104,1.5869139432907104,1
1734786949.262016,-0.937255859375,-0.2938232421875,0.0714111328125,-0.4882812201976776,1.9531248807907104,0.4882812201976776,1
1734786949.3821018,-0.9364013671875,-0.298095703125,0.07373046875,1.9531248807907104,1.8310545682907104,0.6103515625,1
1734786949.502027,-0.9371337890625,-0.3084716796875,0.072021484375,1.9531248807907104,1.220703125,-1.4648436307907104,1
1734786949.6219726,-0.9722900390625,-0.30224609375,0.06298828125,-1.4038084745407104,2.197265625,0.30517578125,1
1734786949.741871,-0.9404296875,-0.3232421875,0.094482421875,-1.220703125,-3.479003667831421,-0.4882812201976776,1
1734786949.8620377,-0.84326171875,-0.2841796875,0.0657958984375,-2.01416015625,-9.3994140625,-9.033203125,1
1734786949.9820018,-0.709716796875,-0.1884765625,0.0413818359375,-0.4882812201976776,-17.63916015625,-19.53125,1
1734786950.101864,-0.6470947265625,-0.182861328125,-0.02294921875,-3.845214605331421,-4.21142578125,-18.85986328125,1
1734786950.221473,-0.8377685546875,-0.1337890625,-0.004150390625,8.85009765625,-14.526366233825684,-13.427733421325684,1
1734786950.342374,-0.9747314453125,-0.1805419921875,-0.045654296875,1.4648436307907104,-3.173827886581421,0.9765624403953552,1
1734786950.4614806,-1.1292724609375,-0.2060546875,-0.009033203125,1.03759765625,3.051757574081421,5.187987804412842,1
1734786950.5819283,-1.38232421875,-0.2584228515625,-0.0494384765625,2.25830078125,11.230467796325684,1.4038084745407104,1
1734786950.701974,-1.5238037109375,-0.3099365234375,-0.0257568359375,4.0283203125,8.97216796875,6.469726085662842,1
1734786950.822287,-1.4068603515625,-0.3197021484375,0.0069580078125,2.0751953125,12.451170921325684,10.620116233825684,1
1734786950.941546,-1.166259765625,-0.2733154296875,0.0059814453125,-4.33349609375,4.2724609375,3.173827886581421,1
1734786951.0620036,-0.9246826171875,-0.23828125,0.0208740234375,-4.150390625,-4.2724609375,3.356933355331421,1
1734786951.1819894,-0.6812744140625,-0.1690673828125,-0.00634765625,-3.784179449081421,-13.793944358825684,-12.329100608825684,1
1734786951.3017216,-0.3995361328125,-0.0865478515625,-0.0648193359375,-21.545408248901367,13.549803733825684,7.385253429412842,1
1734786951.4218614,-0.5606689453125,-0.26611328125,0.003173828125,-7.751464366912842,34.912109375,18.1884765625,1
1734786951.5419283,-1.2139892578125,-0.1798095703125,-0.0028076171875,1.8310545682907104,14.709471702575684,5.065917491912842,1
1734786951.66199,-0.970703125,-0.3043212890625,0.0673828125,-0.7934569716453552,-10.498045921325684,-6.958007335662842,1
1734786951.782036,-0.9495849609375,-0.3017578125,0.0736083984375,-1.220703125,10.864256858825684,5.187987804412842,1
1734786951.9020677,-0.926025390625,-0.269287109375,0.063232421875,2.01416015625,-3.723144292831421,-0.9155272841453552,1
1734786952.4818182,-0.9224853515625,-0.302001953125,0.09130859375,-2.746581792831421,0.1831054538488388,-0.9155272841453552,2
1734786952.482319,-0.954833984375,-0.2725830078125,0.0657958984375,-1.4038084745407104,0.7324218153953552,2.01416015625,2
1734786952.4834156,-0.94189453125,-0.2701416015625,0.0589599609375,-1.4648436307907104,-1.220703125,-0.4882812201976776,2
1734786952.4834156,-0.9432373046875,-0.280517578125,0.0684814453125,-1.7700194120407104,-0.7324218153953552,-1.5258787870407104,2
1734786952.5016632,-0.95849609375,-0.255126953125,0.07421875,0.6713866591453552,0.9765624403953552,2.25830078125,2
1734786952.6216652,-0.964599609375,-0.2784423828125,0.0625,-0.0610351525247097,2.197265625,1.4038084745407104,2
1734786952.742134,-0.948486328125,-0.2850341796875,0.0660400390625,-0.54931640625,0.9765624403953552,1.3427733182907104,2
1734786952.862129,-0.9373779296875,-0.2908935546875,0.08154296875,-0.8544921278953552,-1.4038084745407104,1.7700194120407104,2
1734786952.982315,-0.943115234375,-0.28271484375,0.0904541015625,-3.295898199081421,-1.5869139432907104,-0.6713866591453552,2
1734786953.1024618,-0.934326171875,-0.2852783203125,0.0770263671875,-1.6479490995407104,1.8310545682907104,0.1220703050494194,2
1734786953.2811182,-0.950927734375,-0.290771484375,0.066162109375,-0.0610351525247097,-1.2817381620407104,1.7700194120407104,2
1734786953.341522,-0.945068359375,-0.2822265625,0.068359375,-0.7324218153953552,-4.08935546875,-1.03759765625,2
1734786953.4621434,-0.81396484375,-0.25732421875,0.061279296875,1.220703125,-13.000487327575684,-11.474608421325684,2
1734786953.5821197,-0.6279296875,-0.16259765625,0.0155029296875,1.3427733182907104,-17.63916015625,-21.606443405151367,2
1734786953.702141,-0.7406005859375,-0.098876953125,-0.1021728515625,6.042479991912842,-7.324218273162842,-10.864256858825684,2
1734786953.8220847,-0.862060546875,-0.1090087890625,0.024169921875,19.4091796875,-34.72900390625,-20.996091842651367,2
1734786953.9411836,-0.9818115234375,-0.1766357421875,0.0489501953125,8.9111328125,30.517576217651367,-1.2817381620407104,2
1734786954.0617971,-1.148193359375,-0.1453857421875,0.15478515625,10.803221702575684,-3.051757574081421,-9.6435546875,2
1734786954.1813931,-1.4044189453125,-0.2239990234375,0.09765625,2.868652105331421,11.230467796325684,3.112792730331421,2
1734786954.302083,-1.5908203125,-0.21826171875,0.112060546875,1.9531248807907104,-10.803221702575684,-0.7934569716453552,2
1734786954.4216638,-1.275390625,-0.2252197265625,0.13232421875,-1.4648436307907104,4.2724609375,2.13623046875,2
1734786954.5423064,-1.1558837890625,-0.271728515625,0.0960693359375,-4.45556640625,-0.30517578125,6.103515148162842,2
1734786954.662261,-0.8876953125,-0.2027587890625,0.0787353515625,-7.934569835662842,-3.967284917831421,-4.150390625,2
1734786954.7818565,-0.8104248046875,-0.1142578125,0.0521240234375,-15.197752952575684,-15.747069358825684,0.8544921278953552,2
1734786954.9023309,-0.526611328125,-0.0738525390625,-0.0401611328125,-13.488768577575684,62.377925872802734,27.465818405151367,2
1734786955.0215697,-0.653076171875,-0.215576171875,0.12109375,13.977049827575684,14.953612327575684,12.023924827575684,2
1734786955.141702,-0.96484375,-0.2369384765625,0.2030029296875,-3.356933355331421,21.118162155151367,9.1552734375,2
1734786955.2621174,-0.8406982421875,-0.300537109375,0.1517333984375,3.601073980331421,-12.329100608825684,-1.7089842557907104,2
1734786955.3217585,-0.9473876953125,-0.287841796875,0.155029296875,-1.7089842557907104,-2.13623046875,2.624511480331421,2
1734786955.4415784,-0.9801025390625,-0.2237548828125,0.1280517578125,2.990722417831421,-4.150390625,-2.38037109375,2
1734786956.0113997,-0.97216796875,-0.2724609375,0.0972900390625,3.601073980331421,-4.5166015625,-1.4648436307907104,3
1734786956.0129967,-0.9853515625,-0.2685546875,0.1046142578125,-0.3662109076976776,-0.6103515625,0.2441406100988388,3
1734786956.0137343,-0.966796875,-0.256591796875,0.1080322265625,-0.54931640625,0.4882812201976776,-0.4272460639476776,3
1734786956.0142348,-0.8912353515625,-0.2381591796875,0.1181640625,-1.5869139432907104,-3.845214605331421,-2.13623046875,3
1734786956.0423794,-0.954833984375,-0.2779541015625,0.1087646484375,-1.3427733182907104,-3.845214605331421,0.9765624403953552,3
1734786956.1616015,-0.9677734375,-0.24462890625,0.0909423828125,-0.6103515625,-3.723144292831421,0.8544921278953552,3
1734786956.2818527,-0.9478759765625,-0.25439453125,0.0919189453125,-1.5869139432907104,0.0610351525247097,-0.7324218153953552,3
1734786956.4022727,-0.93701171875,-0.2669677734375,0.086181640625,-1.7089842557907104,1.03759765625,-0.4272460639476776,3
1734786956.521777,-0.951416015625,-0.2608642578125,0.080322265625,-3.295898199081421,-1.4648436307907104,0.1220703050494194,3
1734786956.6425185,-0.9581298828125,-0.2603759765625,0.083251953125,-4.82177734375,-6.347655773162842,-2.868652105331421,3
1734786956.7617865,-0.9329833984375,-0.24658203125,0.077880859375,-4.638671875,-0.2441406100988388,1.7089842557907104,3
1734786956.8820047,-0.92041015625,-0.2412109375,0.048095703125,-2.807616949081421,-7.385253429412842,-3.906249761581421,3
1734786957.002214,-0.70947265625,-0.1700439453125,0.0250244140625,-4.33349609375,-13.488768577575684,-10.986327171325684,3
1734786957.121496,-0.508056640625,-0.154052734375,0.005126953125,-5.615233898162842,-15.624999046325684,-12.207030296325684,3
1734786957.2417135,-0.997802734375,-0.1165771484375,0.0130615234375,7.812499523162842,4.94384765625,-5.676269054412842,3
1734786957.361828,-0.959716796875,-0.19921875,0.0201416015625,8.9111328125,-2.685546636581421,-4.94384765625,3
1734786957.4819405,-1.2706298828125,-0.228759765625,-0.0234375,7.324218273162842,9.3994140625,9.3994140625,3
1734786957.6013155,-1.3125,-0.2486572265625,0.040283203125,6.713866710662842,10.559081077575684,8.36181640625,3
1734786957.7221816,-1.6473388671875,-0.308837890625,0.0084228515625,4.21142578125,-8.48388671875,-8.056640625,3
1734786957.8420281,-1.1796875,-0.296142578125,0.1103515625,-7.690429210662842,7.263183116912842,4.33349609375,3
1734786957.9627016,-1.135986328125,-0.2955322265625,0.0361328125,-7.202147960662842,-13.854979515075684,1.4648436307907104,3
1734786958.0816863,-0.9930419921875,-0.20166015625,-0.0047607421875,-10.131834983825684,-6.774901866912842,6.164550304412842,3
1734786958.2015035,-0.9146728515625,-0.199951171875,0.0262451171875,-5.920409679412842,-16.78466796875,-9.33837890625,3
1734786958.3221853,-0.8267822265625,-0.07421875,-0.069091796875,-0.6713866591453552,0.1220703050494194,-10.070799827575684,3
1734786958.4424775,-0.44873046875,-0.124755859375,0.015380859375,-9.58251953125,45.898433685302734,22.338865280151367,3
1734786958.562126,-1.0782470703125,-0.1951904296875,0.0159912109375,26.794431686401367,-47.973628997802734,-10.375975608825684,3
1734786958.681377,-0.8052978515625,-0.2508544921875,0.076171875,4.5166015625,10.864256858825684,3.112792730331421,3
1734786958.802028,-1.0277099609375,-0.1951904296875,0.0111083984375,2.563476324081421,0.0,0.6713866591453552,3
1734786958.922111,-0.941650390625,-0.2342529296875,0.0218505859375,0.30517578125,0.3662109076976776,0.30517578125,3
1734786959.5241141,-0.9603271484375,-0.2188720703125,0.0174560546875,-2.990722417831421,-4.2724609375,-0.7324218153953552,4
1734786959.5255082,-0.9671630859375,-0.2281494140625,0.0078125,-1.0986328125,-3.662109136581421,0.4882812201976776,4
1734786959.526112,-0.9864501953125,-0.2308349609375,-0.0008544921875,0.0,1.220703125,0.8544921278953552,4
1734786959.5264118,-0.984130859375,-0.2420654296875,0.004638671875,-1.15966796875,0.7934569716453552,1.3427733182907104,4
1734786959.527312,-0.9769287109375,-0.224365234375,-0.00341796875,0.9155272841453552,-3.845214605331421,-0.1220703050494194,4
1734786959.6432264,-0.966064453125,-0.2359619140625,0.0062255859375,0.7934569716453552,1.4648436307907104,-1.4038084745407104,4
1734786959.761609,-0.943603515625,-0.23291015625,0.0069580078125,0.6103515625,-0.6713866591453552,0.0610351525247097,4
1734786959.8813236,-0.9710693359375,-0.221923828125,0.0126953125,-0.0610351525247097,-1.6479490995407104,-0.1831054538488388,4
1734786960.0021257,-0.9735107421875,-0.2275390625,0.0086669921875,-1.9531248807907104,0.1831054538488388,0.1220703050494194,4
1734786960.1213086,-0.94287109375,-0.2286376953125,-0.0009765625,-1.8920897245407104,-0.6713866591453552,-0.3662109076976776,4
1734786960.2418923,-0.9503173828125,-0.214111328125,0.0,-2.01416015625,-0.7324218153953552,-2.868652105331421,4
1734786960.3623378,-0.9769287109375,-0.2166748046875,0.0001220703125,-1.5869139432907104,-4.82177734375,-5.249022960662842,4
1734786960.481816,-0.970703125,-0.2119140625,-0.0023193359375,-0.4882812201976776,3.112792730331421,-0.0610351525247097,4
1734786960.6020813,-0.9022216796875,-0.1953125,-0.010009765625,-0.9765624403953552,-4.39453125,-4.39453125,4
1734786960.7220962,-0.797607421875,-0.113037109375,-0.0450439453125,0.8544921278953552,-2.746581792831421,-13.916014671325684,4
1734786960.9011426,-0.6378173828125,-0.0517578125,-0.042724609375,6.774901866912842,-11.291502952575684,-17.578125,4
1734786960.961794,-0.843505859375,-0.1158447265625,-0.085205078125,12.268065452575684,-16.41845703125,-13.793944358825684,4
1734786961.0818048,-1.04150390625,-0.1373291015625,0.0350341796875,13.061522483825684,20.202634811401367,4.21142578125,4
1734786961.2617884,-1.0924072265625,-0.197509765625,0.044921875,9.70458984375,0.9155272841453552,1.8920897245407104,4
1734786961.381572,-1.3309326171875,-0.189453125,-0.0020751953125,5.065917491912842,10.375975608825684,10.009765625,4
1734786961.4419,-1.401123046875,-0.20166015625,-0.0177001953125,-7.690429210662842,6.774901866912842,2.197265625,4
1734786961.5616343,-1.28955078125,-0.28076171875,0.005126953125,-5.737304210662842,-10.009765625,-11.047362327575684,4
1734786961.681681,-1.372314453125,-0.1639404296875,0.012939453125,-3.540038824081421,-11.962889671325684,-4.69970703125,4
1734786961.8017,-1.0281982421875,-0.1788330078125,-0.008056640625,-7.507323741912842,2.685546636581421,4.08935546875,4
1734786961.9214993,-0.8529052734375,-0.14892578125,-0.0357666015625,-8.1787109375,-8.6669921875,-9.46044921875,4
1734786962.042066,-0.4842529296875,-0.0687255859375,-0.07177734375,-6.469726085662842,-2.990722417831421,0.0,4
1734786962.1621823,-0.6011962890625,-0.1048583984375,-0.0457763671875,-0.4882812201976776,32.28759765625,30.883787155151367,4
1734786962.2821317,-1.010009765625,-0.17529296875,-0.1090087890625,19.10400390625,-7.385253429412842,11.596678733825684,4
1734786962.4020512,-0.939208984375,-0.1617431640625,-0.015380859375,6.591796398162842,-10.559081077575684,-1.03759765625,4
1734786962.5219126,-0.987548828125,-0.24462890625,-0.0408935546875,0.4882812201976776,-11.108397483825684,-5.126952648162842,4
1734786963.0377254,-0.9814453125,-0.2198486328125,-0.0802001953125,-2.01416015625,2.563476324081421,5.126952648162842,5
1734786963.0386457,-0.9962158203125,-0.19921875,-0.0946044921875,-1.4648436307907104,8.544921875,0.9155272841453552,5
1734786963.0396469,-0.9354248046875,-0.200927734375,-0.0540771484375,2.685546636581421,2.929687261581421,-2.197265625,5
1734786963.040646,-0.9825439453125,-0.222900390625,-0.065185546875,-1.3427733182907104,5.187987804412842,-2.3193359375,5
1734786963.1218941,-0.9715576171875,-0.2171630859375,-0.0570068359375,-2.685546636581421,2.01416015625,1.15966796875,5
1734786963.2418427,-0.96875,-0.1939697265625,-0.0516357421875,-1.220703125,2.929687261581421,0.8544921278953552,5
1734786963.3611412,-0.970703125,-0.208740234375,-0.047119140625,-2.563476324081421,-0.6103515625,0.1220703050494194,5
1734786963.4822915,-0.9805908203125,-0.2081298828125,-0.044921875,-1.4648436307907104,2.929687261581421,1.7700194120407104,5
1734786963.6022198,-0.9730224609375,-0.2196044921875,-0.040283203125,-2.0751953125,3.295898199081421,1.6479490995407104,5
1734786963.7217572,-0.9678955078125,-0.2294921875,-0.0367431640625,-2.0751953125,1.4038084745407104,0.9765624403953552,5
1734786963.8419802,-0.9591064453125,-0.227783203125,-0.028076171875,-2.197265625,0.3662109076976776,1.15966796875,5
1734786963.9620135,-0.929443359375,-0.218017578125,-0.0223388671875,-2.25830078125,-0.1831054538488388,-1.5869139432907104,5
1734786964.0819814,-0.856201171875,-0.1820068359375,-0.029296875,0.3662109076976776,-9.8876953125,-11.840819358825684,5
1734786964.202287,-0.693603515625,-0.1180419921875,-0.037109375,3.662109136581421,-7.202147960662842,-11.779784202575684,5
1734786964.3219724,-0.714111328125,-0.14013671875,-0.09033203125,-5.065917491912842,2.3193359375,-3.356933355331421,5
1734786964.4422576,-0.9927978515625,-0.1146240234375,-0.0875244140625,6.103515148162842,-2.3193359375,-12.145995140075684,5
1734786964.562153,-0.973388671875,-0.1416015625,-0.027099609375,6.530761241912842,-3.356933355331421,-13.671874046325684,5
1734786964.6819725,-1.1136474609375,-0.1484375,-0.0369873046875,-2.685546636581421,-3.112792730331421,-7.141112804412842,5
1734786964.8020315,-1.191162109375,-0.1163330078125,-0.0653076171875,-8.30078125,5.187987804412842,1.8920897245407104,5
1734786964.922008,-1.47265625,-0.1060791015625,-0.1302490234375,-6.164550304412842,-5.493163585662842,4.33349609375,5
1734786965.041905,-1.4146728515625,-0.1527099609375,-0.0867919921875,4.33349609375,-13.488768577575684,2.929687261581421,5
1734786965.1618779,-1.2005615234375,-0.203857421875,-0.0760498046875,-3.356933355331421,-0.54931640625,3.479003667831421,5
1734786965.2820487,-1.0152587890625,-0.17529296875,-0.093994140625,-12.023924827575684,5.737304210662842,8.9111328125,5
1734786965.4014273,-0.8885498046875,-0.1337890625,-0.07275390625,-13.610838890075684,4.94384765625,6.713866710662842,5
1734786965.52202,-0.695068359375,-0.093017578125,-0.0906982421875,-6.591796398162842,2.624511480331421,1.0986328125,5
1734786965.642279,-0.5560302734375,-0.0958251953125,-0.0511474609375,-8.4228515625,55.969234466552734,22.094724655151367,5
1734786965.76221,-1.1435546875,-0.216796875,-0.01123046875,25.085447311401367,-63.232418060302734,-12.084959983825684,5
1734786965.88194,-0.7679443359375,-0.22412109375,0.10791015625,3.906249761581421,2.990722417831421,2.563476324081421,5
1734786966.0020182,-1.04150390625,-0.2301025390625,-0.010498046875,-10.864256858825684,2.44140625,3.540038824081421,5
1734786966.5406637,-0.9853515625,-0.1846923828125,0.0322265625,-3.479003667831421,-3.417968511581421,0.2441406100988388,6
1734786966.5422294,-0.9510498046875,-0.20263671875,0.020263671875,0.1831054538488388,2.0751953125,1.4648436307907104,6
1734786966.5430355,-1.005126953125,-0.228759765625,0.0135498046875,-1.0986328125,1.7700194120407104,-0.30517578125,6
1734786966.5440586,-0.96630859375,-0.2247314453125,0.0150146484375,-2.44140625,-0.7934569716453552,1.4038084745407104,6
1734786966.6022565,-0.9609375,-0.2049560546875,0.0059814453125,-2.50244140625,1.220703125,-0.1220703050494194,6
1734786966.781686,-0.9896240234375,-0.228271484375,0.02783203125,-1.8920897245407104,-1.2817381620407104,-0.8544921278953552,6
1734786966.8418117,-0.9884033203125,-0.226806640625,0.0198974609375,-0.9155272841453552,-1.2817381620407104,1.03759765625,6
1734786966.9615972,-0.966064453125,-0.2188720703125,0.0224609375,0.0,1.2817381620407104,0.8544921278953552,6
1734786967.0820718,-0.956298828125,-0.2325439453125,0.0279541015625,-1.15966796875,0.4272460639476776,1.6479490995407104,6
1734786967.202779,-0.9749755859375,-0.2177734375,0.0240478515625,-0.3662109076976776,-1.3427733182907104,1.8920897245407104,6
1734786967.3218732,-0.944580078125,-0.2227783203125,0.02734375,-1.3427733182907104,1.03759765625,2.44140625,6
1734786967.441979,-0.965576171875,-0.2314453125,0.029541015625,-2.990722417831421,0.0,2.01416015625,6
1734786967.562169,-0.9095458984375,-0.232666015625,0.0318603515625,-1.6479490995407104,-2.746581792831421,-3.112792730331421,6
1734786967.6817958,-0.8541259765625,-0.187744140625,0.0045166015625,1.5869139432907104,-13.122557640075684,-15.014647483825684,6
1734786967.8017566,-0.590087890625,-0.093017578125,0.0283203125,-0.9765624403953552,-0.7324218153953552,-14.343260765075684,6
1734786967.9223413,-0.75537109375,-0.0992431640625,-0.0811767578125,0.9765624403953552,-8.9111328125,-16.66259765625,6
1734786968.0412917,-1.0035400390625,-0.0914306640625,-0.0582275390625,14.770506858825684,-20.935056686401367,-15.258788108825684,6
1734786968.1622076,-1.040283203125,-0.1693115234375,0.079345703125,0.6103515625,13.671874046325684,1.220703125,6
1734786968.2817295,-1.156494140625,-0.1171875,0.025634765625,1.220703125,-17.822265625,-5.432128429412842,6
1734786968.4022982,-1.22216796875,-0.1239013671875,0.00244140625,4.57763671875,4.7607421875,4.39453125,6
1734786968.5220535,-1.3839111328125,-0.1514892578125,-0.0555419921875,4.57763671875,-5.0048828125,0.0,6
1734786968.581804,-1.4283447265625,-0.160400390625,-0.0308837890625,-1.4038084745407104,-3.112792730331421,-0.2441406100988388,6
1734786968.7018485,-1.1478271484375,-0.1904296875,0.0048828125,-6.469726085662842,-4.21142578125,-1.4038084745407104,6
1734786968.8219764,-1.064697265625,-0.1610107421875,-0.039306640625,-4.638671875,-0.4882812201976776,7.690429210662842,6
1734786968.9416983,-0.7354736328125,-0.107666015625,-0.031005859375,0.4272460639476776,-18.49365234375,-3.051757574081421,6
1734786969.06225,-0.582763671875,-0.0634765625,-0.1009521484375,-2.50244140625,18.24951171875,15.624999046325684,6
1734786969.1818147,-0.6773681640625,-0.128173828125,0.0137939453125,5.0048828125,36.19384765625,17.88330078125,6
1734786969.3014505,-1.1822509765625,-0.1539306640625,-0.025146484375,-2.868652105331421,14.282225608825684,5.798339366912842,6
1734786969.421958,-0.83935546875,-0.2523193359375,0.075439453125,-3.967284917831421,-4.94384765625,-3.967284917831421,6
1734786969.5422058,-0.9764404296875,-0.216064453125,0.045166015625,-3.967284917831421,0.1831054538488388,6.042479991912842,6
1734786970.055854,-1.0062255859375,-0.203369140625,0.029541015625,-3.845214605331421,-0.4882812201976776,2.563476324081421,7
1734786970.056777,-0.9500732421875,-0.1961669921875,0.030029296875,-1.5258787870407104,-1.03759765625,2.44140625,7
1734786970.0577776,-0.962158203125,-0.1915283203125,0.014892578125,0.7324218153953552,-2.25830078125,-2.624511480331421,7
1734786970.0587778,-0.977294921875,-0.2216796875,0.0333251953125,2.807616949081421,-1.220703125,0.1220703050494194,7
1734786970.1412625,-0.960205078125,-0.2244873046875,0.02294921875,0.3662109076976776,1.6479490995407104,3.479003667831421,7
1734786970.2615905,-0.96484375,-0.2183837890625,0.0247802734375,-4.39453125,2.746581792831421,2.807616949081421,7
1734786970.3817117,-0.99267578125,-0.216064453125,0.0167236328125,-4.39453125,1.7089842557907104,2.13623046875,7
1734786970.5010886,-0.965576171875,-0.2203369140625,0.02685546875,-0.6713866591453552,0.4272460639476776,1.3427733182907104,7
1734786970.6819754,-0.953857421875,-0.2249755859375,0.0364990234375,-0.6103515625,1.3427733182907104,0.3662109076976776,7
1734786970.7420855,-0.9573974609375,-0.2303466796875,0.0313720703125,-1.2817381620407104,0.4272460639476776,2.807616949081421,7
1734786970.8621104,-0.9403076171875,-0.23974609375,0.04296875,-1.4038084745407104,0.0,2.197265625,7
1734786970.9814034,-0.844970703125,-0.22119140625,0.0350341796875,-1.6479490995407104,-11.962889671325684,-6.530761241912842,7
1734786971.1014106,-0.6885986328125,-0.111572265625,-0.007568359375,-0.6713866591453552,-17.76123046875,-19.22607421875,7
1734786971.2221994,-0.6751708984375,-0.1649169921875,-0.0224609375,-9.27734375,-16.66259765625,-26.855466842651367,7
1734786971.3418498,-1.0357666015625,-0.040771484375,-0.0513916015625,10.009765625,-26.184080123901367,-20.507810592651367,7
1734786971.4619389,-0.970947265625,-0.095703125,-0.0692138671875,3.479003667831421,7.324218273162842,-3.845214605331421,7
1734786971.581331,-1.1175537109375,-0.11865234375,-0.09228515625,4.2724609375,23.010251998901367,11.901854515075684,7
1734786971.7018664,-1.2259521484375,-0.118408203125,-0.0784912109375,8.36181640625,3.417968511581421,1.15966796875,7
1734786971.8219917,-1.5164794921875,-0.1326904296875,-0.1314697265625,6.591796398162842,-1.8310545682907104,0.3662109076976776,7
1734786971.942275,-1.392578125,-0.1820068359375,-0.1358642578125,1.3427733182907104,-2.25830078125,0.0610351525247097,7
1734786972.0622156,-1.2286376953125,-0.17724609375,-0.079345703125,-8.056640625,-16.66259765625,-2.44140625,7
1734786972.1815946,-0.993896484375,-0.1361083984375,-0.1031494140625,-7.751464366912842,10.253905296325684,9.33837890625,7
1734786972.3019822,-0.822021484375,-0.1148681640625,-0.08447265625,-3.479003667831421,1.7089842557907104,4.57763671875,7
1734786972.4221592,-0.6011962890625,-0.056884765625,-0.1075439453125,-4.21142578125,20.446775436401367,8.48388671875,7
1734786972.5411947,-0.55517578125,-0.0965576171875,-0.0164794921875,2.990722417831421,34.24072265625,14.038084983825684,7
1734786972.6614199,-1.2578125,-0.125,-0.1558837890625,9.58251953125,-9.21630859375,-1.7089842557907104,7
1734786972.7815373,-0.932373046875,-0.2462158203125,-0.060791015625,1.5258787870407104,7.507323741912842,3.662109136581421,7
1734786972.9020948,-1.010986328125,-0.142333984375,-0.033935546875,0.9155272841453552,-6.774901866912842,0.6103515625,7
1734786973.0218298,-0.917724609375,-0.20654296875,-0.0257568359375,-2.624511480331421,2.0751953125,3.784179449081421,7
1734786973.5638587,-0.972900390625,-0.1844482421875,-0.03466796875,-4.21142578125,1.2817381620407104,4.21142578125,8
1734786973.56539,-0.9945068359375,-0.1798095703125,-0.0421142578125,-3.051757574081421,-2.685546636581421,-1.5258787870407104,8
1734786973.5657628,-0.9720458984375,-0.1932373046875,-0.0634765625,-1.5258787870407104,1.3427733182907104,1.5258787870407104,8
1734786973.5667088,-0.989990234375,-0.20849609375,-0.0390625,-1.7089842557907104,-2.0751953125,3.845214605331421,8
1734786973.6217916,-0.962158203125,-0.1871337890625,-0.0277099609375,-6.225585460662842,1.4648436307907104,1.7700194120407104,8
1734786973.7419136,-0.949951171875,-0.19775390625,-0.0311279296875,-5.371093273162842,-0.3662109076976776,-0.9155272841453552,8
1734786973.861787,-0.9852294921875,-0.1849365234375,-0.043701171875,-5.249022960662842,-2.563476324081421,-2.197265625,8
1734786973.980992,-0.9779052734375,-0.1912841796875,-0.02880859375,-1.6479490995407104,-0.6103515625,-0.4272460639476776,8
1734786974.1019976,-0.98046875,-0.1968994140625,-0.0321044921875,-2.3193359375,0.7324218153953552,1.220703125,8
1734786974.2222385,-0.9761962890625,-0.1898193359375,-0.030517578125,-4.8828125,3.234863042831421,-0.9765624403953552,8
1734786974.342287,-0.96533203125,-0.176513671875,-0.0496826171875,-0.1220703050494194,1.8920897245407104,2.3193359375,8
1734786974.4618518,-0.937255859375,-0.187744140625,-0.0316162109375,3.906249761581421,-3.479003667831421,-1.4038084745407104,8
1734786974.581183,-0.8809814453125,-0.165283203125,-0.0609130859375,7.141112804412842,-6.225585460662842,-7.812499523162842,8
1734786974.701651,-0.5458984375,-0.1455078125,-0.0252685546875,1.5869139432907104,-7.141112804412842,-14.465331077575684,8
1734786974.8217924,-0.7183837890625,-0.0460205078125,-0.14794921875,-0.54931640625,-12.207030296325684,-12.084959983825684,8
1734786974.9414682,-1.0875244140625,-0.063720703125,-0.107666015625,4.08935546875,46.020503997802734,-9.82666015625,8
1734786975.0614765,-0.9945068359375,-0.1063232421875,0.098876953125,4.8828125,28.259275436401367,3.051757574081421,8
1734786975.1817486,-1.1529541015625,-0.1146240234375,0.013427734375,10.070799827575684,11.474608421325684,-1.9531248807907104,8
1734786975.3014886,-1.28466796875,-0.1943359375,0.0208740234375,1.2817381620407104,-3.723144292831421,5.310058116912842,8
1734786975.4215584,-1.6845703125,-0.1971435546875,-0.060546875,3.784179449081421,-22.460935592651367,0.1831054538488388,8
1734786975.6012647,-1.2393798828125,-0.2188720703125,-0.097412109375,-4.57763671875,4.33349609375,5.187987804412842,8
1734786975.661229,-1.11181640625,-0.1558837890625,-0.091552734375,-15.930174827575684,7.995604991912842,1.220703125,8
1734786975.7821333,-0.9244384765625,-0.1380615234375,-0.0570068359375,-9.8876953125,3.662109136581421,0.4882812201976776,8
1734786975.9018567,-0.54638671875,-0.0972900390625,-0.0399169921875,-2.197265625,6.103515148162842,-0.4272460639476776,8
1734786976.0216625,-0.605712890625,-0.0494384765625,-0.11474609375,-0.9765624403953552,7.385253429412842,8.1787109375,8
1734786976.141507,-0.954833984375,-0.1817626953125,-0.076416015625,34.5458984375,-27.893064498901367,-14.221190452575684,8
1734786976.2614894,-0.742431640625,-0.238525390625,0.0028076171875,8.9111328125,11.108397483825684,11.474608421325684,8
1734786976.3816202,-1.1064453125,-0.16455078125,-0.0650634765625,4.57763671875,-5.249022960662842,-0.4272460639476776,8
1734786976.5019717,-0.936767578125,-0.2047119140625,0.01220703125,-1.9531248807907104,-4.94384765625,1.7700194120407104,8
1734786977.0817306,-0.9683837890625,-0.1759033203125,-0.0235595703125,-8.85009765625,1.8920897245407104,1.5869139432907104,9
1734786977.0817306,-0.9501953125,-0.185302734375,-0.001220703125,-5.981444835662842,-0.9765624403953552,-2.685546636581421,9
1734786977.082561,-1.0244140625,-0.1702880859375,-0.031494140625,-4.7607421875,-0.3662109076976776,-5.249022960662842,9
1734786977.083659,-0.98681640625,-0.1839599609375,-0.019775390625,-4.57763671875,-0.4272460639476776,-1.03759765625,9
1734786977.1014833,-0.9713134765625,-0.172119140625,-0.0062255859375,-4.5166015625,-0.3662109076976776,0.4882812201976776,9
1734786977.2215726,-0.9925537109375,-0.1732177734375,-0.016845703125,-3.234863042831421,-1.4648436307907104,0.9765624403953552,9
1734786977.3414247,-0.979736328125,-0.1807861328125,-0.019775390625,-1.8310545682907104,-2.3193359375,0.7324218153953552,9
1734786977.461781,-0.9832763671875,-0.19189453125,-0.0135498046875,-3.723144292831421,-2.807616949081421,0.1220703050494194,9
1734786977.5818403,-0.9820556640625,-0.176513671875,-0.0205078125,-7.507323741912842,0.7934569716453552,2.197265625,9
1734786977.7018816,-0.97607421875,-0.175048828125,-0.019287109375,-3.601073980331421,-0.54931640625,0.30517578125,9
1734786977.821791,-0.968505859375,-0.1859130859375,-0.0164794921875,0.2441406100988388,-0.6713866591453552,0.7934569716453552,9
1734786977.9415705,-0.94482421875,-0.1781005859375,-0.0267333984375,3.112792730331421,-5.371093273162842,-2.685546636581421,9
1734786978.0618906,-0.820556640625,-0.13916015625,-0.055908203125,0.4882812201976776,-15.991209983825684,-14.404295921325684,9
1734786978.1817098,-0.720703125,-0.1153564453125,-0.0789794921875,-10.559081077575684,-20.324705123901367,-13.061522483825684,9
1734786978.301371,-0.777099609375,-0.049072265625,-0.1514892578125,-1.4648436307907104,0.2441406100988388,-5.554198741912842,9
1734786978.4219704,-0.999267578125,-0.0537109375,-0.1578369140625,22.216794967651367,-37.90283203125,-1.03759765625,9
1734786978.5412726,-1.01171875,-0.156005859375,-0.06689453125,12.084959983825684,17.9443359375,4.08935546875,9
1734786978.6623273,-1.158447265625,-0.1610107421875,-0.0887451171875,3.845214605331421,-1.6479490995407104,-7.629394054412842,9
1734786978.7814553,-1.5887451171875,-0.115478515625,-0.20947265625,-5.249022960662842,2.3193359375,-0.9155272841453552,9
1734786978.9012444,-1.541748046875,-0.156494140625,-0.199462890625,-2.868652105331421,-14.038084983825684,-2.197265625,9
1734786979.0217426,-1.249267578125,-0.1474609375,-0.0977783203125,-5.554198741912842,-1.15966796875,3.723144292831421,9
1734786979.1417341,-1.105224609375,-0.1502685546875,-0.1163330078125,-3.417968511581421,1.6479490995407104,4.39453125,9
1734786979.2615497,-0.7296142578125,-0.1097412109375,-0.08642578125,-4.08935546875,-4.5166015625,-4.69970703125,9
1734786979.3818603,-0.53857421875,-0.0001220703125,-0.171630859375,-5.981444835662842,-17.51708984375,-16.6015625,9
1734786979.5019677,-0.63232421875,-0.107177734375,-0.085693359375,-7.324218273162842,62.133785247802734,30.029294967651367,9
1734786979.6211922,-1.2596435546875,-0.1942138671875,-0.1971435546875,24.414060592651367,-36.2548828125,19.10400390625,9
1734786979.7417197,-0.94775390625,-0.0848388671875,-0.05419921875,5.310058116912842,-11.230467796325684,10.131834983825684,9
1734786979.8615062,-0.9207763671875,-0.175048828125,-0.11572265625,-18.798828125,-0.3662109076976776,-7.385253429412842,9
1734786979.9822552,-0.9520263671875,-0.1859130859375,-0.097412109375,-5.920409679412842,1.0986328125,0.1220703050494194,9
1734786980.5857692,-0.9710693359375,-0.1815185546875,-0.0889892578125,-1.5869139432907104,5.310058116912842,0.6713866591453552,10
1734786980.5867643,-0.958251953125,-0.1756591796875,-0.091796875,-0.6713866591453552,2.44140625,-0.2441406100988388,10
1734786980.5877645,-0.9447021484375,-0.184326171875,-0.0848388671875,-0.6713866591453552,0.7934569716453552,1.5258787870407104,10
1734786980.5882957,-0.9647216796875,-0.189208984375,-0.09130859375,-1.4648436307907104,-5.493163585662842,1.15966796875,10
1734786980.5893338,-0.9761962890625,-0.16796875,-0.1064453125,-0.54931640625,-0.0610351525247097,-0.1831054538488388,10
1734786980.7018416,-0.9549560546875,-0.18798828125,-0.1087646484375,-0.7934569716453552,-0.2441406100988388,-1.6479490995407104,10
1734786980.821793,-0.974365234375,-0.177490234375,-0.11181640625,0.3662109076976776,1.9531248807907104,-2.01416015625,10
1734786980.9417427,-0.970458984375,-0.1827392578125,-0.104248046875,-1.9531248807907104,2.13623046875,-0.4272460639476776,10
1734786981.061755,-0.9593505859375,-0.1724853515625,-0.0987548828125,-2.685546636581421,-0.6103515625,0.3662109076976776,10
1734786981.1820157,-0.979248046875,-0.1771240234375,-0.089599609375,-1.5258787870407104,0.7934569716453552,0.4882812201976776,10
1734786981.3018749,-0.978271484375,-0.166259765625,-0.09765625,-0.7934569716453552,1.7700194120407104,-0.1831054538488388,10
1734786981.4814644,-0.9635009765625,-0.1796875,-0.0955810546875,-0.4272460639476776,0.1831054538488388,0.3662109076976776,10
1734786981.5417607,-0.9039306640625,-0.163330078125,-0.0997314453125,0.2441406100988388,-6.347655773162842,-5.493163585662842,10
1734786981.6612763,-0.855224609375,-0.1072998046875,-0.13525390625,1.15966796875,-9.765625,-16.17431640625,10
1734786981.7814193,-0.6307373046875,-0.0411376953125,-0.0802001953125,5.676269054412842,-8.11767578125,-5.920409679412842,10
1734786981.9611807,-0.897216796875,-0.0821533203125,-0.18994140625,8.4228515625,-4.638671875,-7.751464366912842,10
1734786982.0218203,-0.9017333984375,-0.058349609375,-0.13427734375,11.962889671325684,-6.958007335662842,-8.60595703125,10
1734786982.1419916,-1.1029052734375,-0.113525390625,-0.15673828125,4.2724609375,10.070799827575684,2.44140625,10
1734786982.2617075,-1.1468505859375,-0.145751953125,-0.0972900390625,6.530761241912842,-18.00537109375,-7.873534679412842,10
1734786982.3820028,-1.6214599609375,-0.1070556640625,-0.1903076171875,-10.437010765075684,-4.2724609375,-5.187987804412842,10
1734786982.5014956,-1.4171142578125,-0.1407470703125,-0.167724609375,-4.150390625,6.347655773162842,4.69970703125,10
1734786982.621176,-1.22265625,-0.1480712890625,-0.148681640625,0.4882812201976776,-0.54931640625,4.69970703125,10
1734786982.741297,-0.911376953125,-0.1153564453125,-0.1019287109375,-9.1552734375,1.4648436307907104,5.0048828125,10
1734786982.861569,-0.8282470703125,-0.07958984375,-0.1090087890625,-6.286620616912842,-5.249022960662842,-4.39453125,10
1734786982.9817247,-0.6009521484375,-0.0712890625,-0.13330078125,-6.347655773162842,1.5258787870407104,7.202147960662842,10
1734786983.1015995,-0.5662841796875,-0.09375,-0.083984375,-8.97216796875,39.306640625,31.188962936401367,10
1734786983.2215614,-1.3448486328125,-0.1529541015625,-0.2283935546875,8.85009765625,-52.001949310302734,-5.432128429412842,10
1734786983.3419533,-0.91015625,-0.179931640625,-0.06884765625,-1.9531248807907104,-0.7324218153953552,-4.7607421875,10
1734786983.4617944,-1.0054931640625,-0.16455078125,-0.108642578125,-3.662109136581421,11.962889671325684,5.920409679412842,10
1734786983.582144,-0.9873046875,-0.149169921875,-0.0926513671875,-0.1831054538488388,-0.4272460639476776,1.7700194120407104,10
1734786984.107854,-0.95068359375,-0.16943359375,-0.0721435546875,-1.220703125,1.9531248807907104,2.25830078125,11
1734786984.1083536,-0.9781494140625,-0.165283203125,-0.0845947265625,-4.08935546875,4.33349609375,1.220703125,11
1734786984.1094036,-0.968505859375,-0.179931640625,-0.07421875,-2.624511480331421,2.197265625,1.4038084745407104,11
1734786984.1096988,-0.9715576171875,-0.1842041015625,-0.077880859375,-3.540038824081421,4.94384765625,1.4038084745407104,11
1734786984.181712,-0.9749755859375,-0.174560546875,-0.0693359375,-4.33349609375,0.4882812201976776,-0.3662109076976776,11
1734786984.301685,-0.9774169921875,-0.1883544921875,-0.0775146484375,-1.4038084745407104,1.7089842557907104,1.7089842557907104,11
1734786984.4211829,-0.981689453125,-0.1763916015625,-0.0638427734375,-0.2441406100988388,-0.0610351525247097,0.7324218153953552,11
1734786984.5423398,-0.970458984375,-0.1812744140625,-0.059814453125,-1.8920897245407104,0.1220703050494194,0.30517578125,11
1734786984.6619322,-0.9490966796875,-0.1689453125,-0.0634765625,0.4272460639476776,-1.8310545682907104,-1.7089842557907104,11
1734786984.7820814,-0.9359130859375,-0.14892578125,-0.08544921875,5.798339366912842,-7.324218273162842,-8.056640625,11
1734786984.901555,-0.7880859375,-0.141357421875,-0.077880859375,8.11767578125,-10.620116233825684,-9.82666015625,11
1734786985.0211837,-0.4539794921875,-0.0806884765625,-0.058349609375,5.493163585662842,-12.329100608825684,-12.512206077575684,11
1734786985.1417973,-0.8173828125,-0.041259765625,-0.1710205078125,16.05224609375,-30.639646530151367,-8.72802734375,11
1734786985.2614853,-1.239501953125,-0.0067138671875,-0.2615966796875,6.713866710662842,3.723144292831421,-5.676269054412842,11
1734786985.3810432,-1.08056640625,-0.1387939453125,-0.1820068359375,-7.446288585662842,18.310546875,0.9765624403953552,11
1734786985.5013018,-1.3740234375,-0.156494140625,-0.2445068359375,-2.01416015625,-8.11767578125,5.615233898162842,11
1734786985.621821,-1.6392822265625,-0.1126708984375,-0.2264404296875,3.417968511581421,-12.329100608825684,0.9765624403953552,11
1734786985.681451,-1.364501953125,-0.1221923828125,-0.2083740234375,-1.8310545682907104,-5.249022960662842,0.6103515625,11
1734786985.8016067,-1.2093505859375,-0.216796875,-0.1617431640625,-0.8544921278953552,-39.00146484375,6.103515148162842,11
1734786985.9217653,-0.8258056640625,-0.1561279296875,-0.163818359375,-2.868652105331421,8.30078125,9.521484375,11
1734786986.0411708,-0.615234375,-0.0697021484375,-0.1689453125,-3.051757574081421,7.202147960662842,-1.3427733182907104,11
1734786986.161759,-0.4384765625,-0.0732421875,-0.134521484375,-7.629394054412842,33.3251953125,16.11328125,11
1734786986.2815087,-0.6949462890625,-0.2066650390625,-0.097900390625,-0.1220703050494194,19.775390625,14.099120140075684,11
1734786986.4012532,-1.1685791015625,-0.0872802734375,-0.081298828125,-11.779784202575684,51.818843841552734,0.6713866591453552,11
1734786986.5217435,-0.9302978515625,-0.228759765625,-0.084228515625,-0.2441406100988388,-9.21630859375,-10.192870140075684,11
1734786986.6417453,-0.9638671875,-0.1890869140625,-0.0714111328125,-4.39453125,4.08935546875,2.929687261581421,11
1734786986.7614813,-0.9727783203125,-0.163330078125,-0.092529296875,-1.5258787870407104,-0.7934569716453552,1.4648436307907104,11
1734786986.881591,-0.9476318359375,-0.2054443359375,-0.089111328125,1.2817381620407104,0.6713866591453552,3.784179449081421,11
1734786987.0019672,-1.0025634765625,-0.1922607421875,-0.104248046875,-4.39453125,-5.126952648162842,-0.8544921278953552,11
1734786987.1219532,-0.98388671875,-0.1822509765625,-0.09521484375,-3.295898199081421,-1.15966796875,0.9155272841453552,11
1734786987.629269,-0.977294921875,-0.19482421875,-0.0992431640625,-4.8828125,-0.9765624403953552,-1.0986328125,12
1734786987.6305027,-0.9686279296875,-0.19482421875,-0.0948486328125,-2.624511480331421,1.8310545682907104,3.356933355331421,12
1734786987.631107,-0.979736328125,-0.1934814453125,-0.09326171875,0.2441406100988388,2.25830078125,3.723144292831421,12
1734786987.631107,-0.9144287109375,-0.2059326171875,-0.087890625,1.03759765625,-0.7934569716453552,1.03759765625,12
1734786987.7209654,-0.994873046875,-0.203857421875,-0.0931396484375,0.6103515625,-5.249022960662842,-2.3193359375,12
1734786987.8418832,-0.95068359375,-0.2196044921875,-0.08935546875,-0.9155272841453552,-0.30517578125,-0.1220703050494194,12
1734786987.961202,-0.958251953125,-0.1986083984375,-0.094482421875,-1.7089842557907104,-4.57763671875,-1.5869139432907104,12
1734786988.0818696,-0.964111328125,-0.18994140625,-0.0947265625,-1.5869139432907104,-0.54931640625,-0.3662109076976776,12
1734786988.2019918,-0.9505615234375,-0.1888427734375,-0.11669921875,1.6479490995407104,-1.8920897245407104,-1.3427733182907104,12
1734786988.3219607,-0.9840087890625,-0.19921875,-0.1104736328125,0.8544921278953552,-4.8828125,-2.746581792831421,12
1734786988.4411705,-0.9713134765625,-0.1822509765625,-0.116943359375,0.4272460639476776,0.6713866591453552,-0.7934569716453552,12
1734786988.5615084,-0.921875,-0.1619873046875,-0.1229248046875,1.5258787870407104,-6.286620616912842,-6.225585460662842,12
1734786988.6817772,-0.837158203125,-0.1396484375,-0.1373291015625,4.82177734375,-20.324705123901367,-20.568845748901367,12
1734786988.8016407,-0.6080322265625,-0.0601806640625,-0.1279296875,0.4272460639476776,-18.6767578125,-18.6767578125,12
1734786988.9218748,-0.6597900390625,-0.020263671875,-0.20361328125,-0.0610351525247097,-1.5258787870407104,-15.808104515075684,12
1734786989.0414276,-1.0205078125,0.002685546875,-0.2528076171875,15.197752952575684,3.540038824081421,-13.366698265075684,12
1734786989.1619186,-0.9656982421875,-0.06396484375,-0.1876220703125,11.474608421325684,3.784179449081421,-4.39453125,12
1734786989.281174,-1.2342529296875,-0.058837890625,-0.272705078125,-0.30517578125,-9.94873046875,0.0,12
1734786989.4019108,-1.6715087890625,0.01220703125,-0.2940673828125,-6.469726085662842,-11.474608421325684,-5.920409679412842,12
1734786989.5216951,-1.4375,-0.136962890625,-0.2379150390625,0.30517578125,22.094724655151367,12.145995140075684,12
1734786989.64144,-1.298828125,-0.09912109375,-0.2215576171875,0.2441406100988388,15.441893577575684,10.620116233825684,12
1734786989.7612357,-0.9312744140625,-0.11279296875,-0.149169921875,-7.141112804412842,3.540038824081421,4.21142578125,12
1734786989.881647,-0.7713623046875,-0.091552734375,-0.1185302734375,-12.939452171325684,16.357421875,11.840819358825684,12
1734786990.0008976,-0.4241943359375,-0.055908203125,-0.06396484375,-11.474608421325684,37.53662109375,28.076169967651367,12
1734786990.1215296,-0.7059326171875,-0.1929931640625,-0.02783203125,0.3662109076976776,9.33837890625,6.713866710662842,12
1734786990.3012102,-0.8983154296875,-0.1146240234375,0.0467529296875,-6.774901866912842,31.860349655151367,7.690429210662842,12
1734786990.3617592,-0.943115234375,-0.25732421875,0.0072021484375,4.94384765625,-18.798828125,-7.751464366912842,12
1734786990.4817162,-0.927001953125,-0.2333984375,-0.0260009765625,0.1831054538488388,4.39453125,7.324218273162842,12
1734786990.6017966,-1.01025390625,-0.19287109375,-0.052490234375,4.33349609375,0.54931640625,0.30517578125,12
1734786991.1187196,-0.954345703125,-0.2283935546875,-0.0267333984375,3.540038824081421,2.25830078125,0.6713866591453552,13
1734786991.1194935,-0.954345703125,-0.2340087890625,-0.0302734375,0.9765624403953552,1.8920897245407104,1.5869139432907104,13
1734786991.1198237,-0.9813232421875,-0.23291015625,-0.0478515625,1.7089842557907104,3.906249761581421,0.6103515625,13
1734786991.1198237,-0.97021484375,-0.219482421875,-0.036865234375,0.6713866591453552,3.906249761581421,-0.3662109076976776,13
1734786991.200743,-0.9805908203125,-0.232177734375,-0.0318603515625,-2.197265625,2.3193359375,0.54931640625,13
1734786991.321684,-0.9664306640625,-0.2205810546875,-0.031005859375,-1.8920897245407104,0.7324218153953552,-0.4272460639476776,13
1734786991.4411285,-0.9595947265625,-0.2275390625,-0.023193359375,-0.4272460639476776,1.15966796875,-0.1220703050494194,13
1734786991.561755,-0.9754638671875,-0.224365234375,-0.0179443359375,-1.220703125,2.38037109375,0.7934569716453552,13
1734786991.681686,-0.9661865234375,-0.22509765625,-0.0211181640625,-2.563476324081421,-0.1220703050494194,1.03759765625,13
1734786991.8022306,-0.972900390625,-0.21923828125,-0.0194091796875,-1.8310545682907104,-1.5258787870407104,0.4272460639476776,13
1734786991.9213896,-0.9188232421875,-0.2142333984375,-0.0345458984375,0.7324218153953552,-8.48388671875,-4.21142578125,13
1734786992.0409603,-0.7369384765625,-0.1417236328125,-0.056884765625,-1.6479490995407104,-9.94873046875,-11.474608421325684,13
1734786992.1618893,-0.632080078125,-0.0572509765625,-0.0660400390625,5.126952648162842,-13.488768577575684,-9.6435546875,13
1734786992.2814739,-0.8228759765625,-0.142333984375,-0.121337890625,11.718749046325684,-8.97216796875,-8.4228515625,13
1734786992.4017901,-1.0137939453125,-0.15380859375,-0.1051025390625,7.690429210662842,-1.5258787870407104,-7.202147960662842,13
1734786992.5208375,-1.1466064453125,-0.2021484375,-0.0828857421875,2.929687261581421,0.6103515625,-0.7934569716453552,13
1734786992.641442,-1.47265625,-0.2786865234375,-0.2486572265625,-0.1831054538488388,26.916501998901367,12.634276390075684,13
1734786992.7613149,-1.5325927734375,-0.247314453125,-0.1689453125,-1.15966796875,-12.817381858825684,-0.4272460639476776,13
1734786992.8812146,-1.3975830078125,-0.248779296875,-0.0560302734375,3.173827886581421,-3.051757574081421,1.5869139432907104,13
1734786993.0018573,-1.1929931640625,-0.2528076171875,-0.03173828125,4.45556640625,-4.69970703125,-4.8828125,13
1734786993.1218095,-0.97314453125,-0.2244873046875,-0.0631103515625,-2.929687261581421,2.929687261581421,-0.3662109076976776,13
1734786993.241579,-0.748046875,-0.11328125,-0.070556640625,-0.7934569716453552,-4.7607421875,-12.512206077575684,13
1734786993.3614047,-0.6463623046875,-0.1070556640625,-0.1033935546875,-8.23974609375,12.329100608825684,15.624999046325684,13
1734786993.4815419,-0.7265625,-0.159423828125,-0.0093994140625,-4.08935546875,31.249998092651367,15.563963890075684,13
1734786993.6019387,-1.1593017578125,-0.11181640625,-0.0401611328125,-14.099120140075684,25.268552780151367,2.3193359375,13
1734786993.721305,-0.9144287109375,-0.248291015625,0.02783203125,-4.45556640625,-16.29638671875,-5.798339366912842,13
1734786993.841478,-0.99951171875,-0.1839599609375,-0.0167236328125,-6.591796398162842,10.986327171325684,9.6435546875,13
1734786993.961781,-0.973388671875,-0.1893310546875,-0.029296875,-2.38037109375,-0.4882812201976776,2.685546636581421,13
1734786994.0813487,-0.9278564453125,-0.2215576171875,-0.003662109375,1.8920897245407104,-0.9765624403953552,4.21142578125,13
1734786994.640299,-0.9703369140625,-0.22802734375,-0.0157470703125,2.01416015625,1.0986328125,3.417968511581421,14
1734786994.641381,-0.970947265625,-0.23876953125,-0.009033203125,-0.4272460639476776,2.563476324081421,-0.1220703050494194,14
1734786994.641381,-0.9537353515625,-0.2315673828125,-0.004150390625,-2.0751953125,5.432128429412842,0.0,14
1734786994.642399,-0.954345703125,-0.23876953125,0.011474609375,-0.30517578125,0.7934569716453552,0.7324218153953552,14
1734786994.6819754,-0.940185546875,-0.2354736328125,0.019287109375,-1.0986328125,1.6479490995407104,1.03759765625,14
1734786994.8011994,-0.9259033203125,-0.2254638671875,0.0350341796875,-0.9155272841453552,-2.25830078125,-1.15966796875,14
1734786994.9246745,-0.9576416015625,-0.2449951171875,0.009765625,-2.197265625,1.7700194120407104,-0.8544921278953552,14
1734786995.0412223,-0.9503173828125,-0.23681640625,0.0103759765625,0.6713866591453552,-1.7089842557907104,1.220703125,14
1734786995.161185,-0.948974609375,-0.2298583984375,0.0206298828125,-1.15966796875,-4.2724609375,-0.7934569716453552,14
1734786995.281622,-0.942626953125,-0.2308349609375,0.009521484375,-2.3193359375,-4.08935546875,-2.624511480331421,14
1734786995.401662,-0.93115234375,-0.1971435546875,-0.006591796875,2.929687261581421,-5.493163585662842,-6.774901866912842,14
1734786995.5814557,-0.864990234375,-0.1929931640625,-0.0196533203125,1.9531248807907104,-7.751464366912842,-6.652831554412842,14
1734786995.6414742,-0.5928955078125,-0.13525390625,-0.0513916015625,0.4882812201976776,-1.8310545682907104,-13.122557640075684,14
1734786995.7617297,-0.6839599609375,-0.1435546875,-0.0572509765625,8.6669921875,-16.6015625,-4.7607421875,14
1734786995.8811867,-0.8876953125,-0.0458984375,-0.044921875,9.1552734375,-10.131834983825684,-9.94873046875,14
1734786996.0015645,-1.0325927734375,-0.1900634765625,-0.014404296875,6.225585460662842,15.686034202575684,-2.01416015625,14
1734786996.180935,-1.15283203125,-0.209228515625,0.020751953125,2.624511480331421,5.493163585662842,-5.0048828125,14
1734786996.240971,-1.584228515625,-0.2034912109375,-0.0516357421875,1.8310545682907104,1.8920897245407104,-1.4038084745407104,14
1734786996.3613863,-1.50732421875,-0.2294921875,-0.0469970703125,-0.4272460639476776,3.601073980331421,6.530761241912842,14
1734786996.481368,-1.408447265625,-0.1383056640625,-0.0843505859375,-3.173827886581421,-4.5166015625,-15.319823265075684,14
1734786996.6009295,-1.0057373046875,-0.1912841796875,-0.0556640625,-6.652831554412842,5.676269054412842,7.385253429412842,14
1734786996.7218347,-0.87060546875,-0.113037109375,-0.04833984375,-7.080077648162842,-1.5258787870407104,4.69970703125,14
1734786996.841913,-0.5228271484375,-0.079833984375,-0.030029296875,-11.596678733825684,11.047362327575684,3.967284917831421,14
1734786996.9616914,-0.58837890625,-0.1004638671875,-0.009033203125,-3.967284917831421,39.306640625,29.296873092651367,14
1734786997.0818617,-0.971923828125,-0.219482421875,-0.020751953125,19.22607421875,-20.080564498901367,1.4648436307907104,14
1734786997.2019405,-0.8868408203125,-0.24462890625,0.0635986328125,-8.056640625,6.225585460662842,8.48388671875,14
1734786997.321781,-0.9820556640625,-0.2008056640625,0.0457763671875,-6.347655773162842,0.0,0.7934569716453552,14
1734786997.4410708,-0.9168701171875,-0.2359619140625,0.060302734375,-0.1220703050494194,4.69970703125,2.0751953125,14
1734786997.5609124,-0.962890625,-0.253173828125,0.052490234375,3.295898199081421,0.6103515625,2.807616949081421,14
1734786998.166553,-0.9364013671875,-0.2296142578125,0.0692138671875,-0.9155272841453552,1.8920897245407104,-2.13623046875,15
1734786998.166553,-0.92919921875,-0.256103515625,0.0552978515625,-2.44140625,-0.7324218153953552,-0.4272460639476776,15
1734786998.1678205,-0.967041015625,-0.2464599609375,0.0716552734375,-0.8544921278953552,-0.0610351525247097,1.6479490995407104,15
1734786998.1688175,-0.9598388671875,-0.2354736328125,0.067138671875,-3.295898199081421,2.746581792831421,2.13623046875,15
1734786998.1688175,-0.943603515625,-0.244140625,0.06396484375,-2.563476324081421,2.0751953125,1.4038084745407104,15
1734786998.2810805,-0.9556884765625,-0.2421875,0.070556640625,-3.234863042831421,1.4038084745407104,0.0610351525247097,15
1734786998.401325,-0.9571533203125,-0.249267578125,0.0780029296875,-1.3427733182907104,6.042479991912842,1.15966796875,15
1734786998.5215273,-0.937744140625,-0.2432861328125,0.0897216796875,0.6713866591453552,0.9155272841453552,0.4882812201976776,15
1734786998.6411192,-0.9532470703125,-0.2431640625,0.0772705078125,1.220703125,-0.9155272841453552,-0.4272460639476776,15
1734786998.7611387,-0.9661865234375,-0.2496337890625,0.0633544921875,-0.6713866591453552,-2.624511480331421,1.03759765625,15
1734786998.881556,-0.935791015625,-0.24951171875,0.0675048828125,-1.3427733182907104,-2.44140625,1.220703125,15
1734786999.0012112,-0.858642578125,-0.2181396484375,0.061279296875,3.845214605331421,-9.82666015625,-12.512206077575684,15
1734786999.1213834,-0.669677734375,-0.139892578125,-0.0047607421875,11.352538108825684,-26.672361373901367,-35.7666015625,15
1734786999.2410557,-0.6898193359375,-0.1124267578125,-0.020751953125,-0.9155272841453552,-6.958007335662842,-14.953612327575684,15
1734786999.3616743,-0.7926025390625,-0.0960693359375,-0.0211181640625,-2.563476324081421,9.09423828125,5.859374523162842,15
1734786999.4814384,-0.9886474609375,-0.08984375,-0.04150390625,0.8544921278953552,16.41845703125,10.437010765075684,15
1734786999.6608624,-1.02001953125,-0.1988525390625,-0.0361328125,1.5869139432907104,-0.4882812201976776,10.925292015075684,15
1734786999.7215738,-1.2362060546875,-0.3265380859375,0.0126953125,-3.967284917831421,10.498045921325684,7.263183116912842,15
1734786999.8419387,-1.705810546875,-0.3179931640625,-0.0311279296875,-2.563476324081421,-12.329100608825684,2.563476324081421,15
1734786999.9611058,-1.37890625,-0.28173828125,0.0194091796875,-0.1220703050494194,-5.371093273162842,-0.7324218153953552,15
1734787000.1415746,-1.2078857421875,-0.2532958984375,-0.038818359375,-0.6103515625,2.563476324081421,0.9765624403953552,15
1734787000.2016535,-0.98974609375,-0.19921875,-0.0618896484375,-3.356933355331421,7.263183116912842,-1.9531248807907104,15
1734787000.3217788,-0.75390625,-0.156982421875,-0.01904296875,-9.33837890625,-14.343260765075684,-13.183592796325684,15
1734787000.4415617,-0.53076171875,-0.0897216796875,-0.07666015625,-9.09423828125,7.446288585662842,14.709471702575684,15
1734787000.501856,-0.810546875,-0.17138671875,-0.0389404296875,9.82666015625,-0.6713866591453552,6.408690929412842,15
1734787000.6220107,-0.9324951171875,-0.193359375,0.013916015625,-3.356933355331421,17.51708984375,10.192870140075684,15
1734787000.7411132,-0.927490234375,-0.2545166015625,0.01416015625,8.72802734375,3.356933355331421,3.784179449081421,15
1734787000.86137,-0.9727783203125,-0.23291015625,-0.024658203125,1.0986328125,3.906249761581421,2.685546636581421,15
1734787000.9810438,-0.975341796875,-0.239501953125,-0.014892578125,-1.3427733182907104,2.13623046875,-0.7324218153953552,15
1734787001.1016734,-0.947509765625,-0.2530517578125,0.005126953125,-2.624511480331421,3.295898199081421,0.6713866591453552,15
1734787001.6867788,-0.94677734375,-0.234619140625,0.01904296875,-1.0986328125,1.5869139432907104,1.0986328125,16
1734787001.6868796,-0.96533203125,-0.23974609375,0.0042724609375,1.4038084745407104,7.263183116912842,1.6479490995407104,16
1734787001.6878347,-0.943115234375,-0.2510986328125,0.0426025390625,1.220703125,-3.540038824081421,-2.25830078125,16
1734787001.6878347,-0.953369140625,-0.2615966796875,0.0091552734375,-1.4648436307907104,1.4038084745407104,2.746581792831421,16
1734787001.7009552,-0.941650390625,-0.263671875,0.01806640625,-0.30517578125,0.6713866591453552,2.13623046875,16
1734787001.8807364,-0.9298095703125,-0.261474609375,0.0267333984375,-2.868652105331421,3.662109136581421,1.6479490995407104,16
1734787001.9409828,-0.952880859375,-0.2578125,0.019287109375,-2.25830078125,-0.3662109076976776,1.4038084745407104,16
1734787002.0614228,-0.9495849609375,-0.2562255859375,0.026123046875,-2.25830078125,0.6713866591453552,0.4882812201976776,16
1734787002.1817431,-0.927001953125,-0.2462158203125,0.0255126953125,-0.0610351525247097,-3.845214605331421,-1.8310545682907104,16
1734787002.3013957,-0.9097900390625,-0.236083984375,0.00439453125,3.906249761581421,-8.1787109375,-7.019042491912842,16
1734787002.4214897,-0.759765625,-0.1785888671875,-0.005859375,3.295898199081421,-12.390135765075684,-14.404295921325684,16
1734787002.541632,-0.547607421875,-0.119873046875,-0.0311279296875,-6.286620616912842,2.3193359375,-5.371093273162842,16
1734787002.6613343,-0.8741455078125,-0.0989990234375,-0.1168212890625,10.192870140075684,-37.9638671875,-9.82666015625,16
1734787002.781776,-0.887939453125,-0.1490478515625,-0.047119140625,1.3427733182907104,5.371093273162842,-7.019042491912842,16
1734787002.9017365,-1.0704345703125,-0.230712890625,-0.08447265625,-0.9765624403953552,-14.831542015075684,-11.047362327575684,16
1734787003.0216863,-1.458984375,-0.1846923828125,-0.2725830078125,7.568358898162842,-11.047362327575684,-1.2817381620407104,16
1734787003.1415958,-1.619384765625,-0.2264404296875,-0.2091064453125,6.042479991912842,-2.50244140625,2.624511480331421,16
1734787003.261541,-1.2427978515625,-0.23876953125,-0.1103515625,-1.3427733182907104,12.145995140075684,12.084959983825684,16
1734787003.3811724,-1.1435546875,-0.2041015625,-0.130859375,-4.150390625,-5.554198741912842,0.30517578125,16
1734787003.501629,-0.97509765625,-0.1795654296875,-0.1036376953125,-16.4794921875,0.6713866591453552,5.432128429412842,16
1734787003.62152,-0.7818603515625,-0.150634765625,-0.10302734375,-10.070799827575684,-5.0048828125,8.4228515625,16
1734787003.7412565,-0.5115966796875,-0.120849609375,-0.091796875,-6.408690929412842,2.624511480331421,17.822265625,16
1734787003.86129,-0.58544921875,-0.181640625,-0.05712890625,-3.417968511581421,10.864256858825684,22.705076217651367,16
1734787003.9815593,-1.14208984375,-0.2547607421875,-0.0855712890625,-1.5258787870407104,26.611326217651367,12.084959983825684,16
1734787004.1014245,-0.9405517578125,-0.3486328125,-0.0875244140625,3.356933355331421,0.7934569716453552,-1.03759765625,16
1734787004.221138,-0.8970947265625,-0.267333984375,-0.0418701171875,-2.13623046875,4.82177734375,1.6479490995407104,16
1734787004.3418758,-0.9404296875,-0.2869873046875,-0.0469970703125,-0.1220703050494194,0.1831054538488388,-1.220703125,16
1734787004.4616168,-0.9505615234375,-0.30615234375,-0.04443359375,-2.13623046875,1.220703125,-0.54931640625,16
1734787004.580992,-0.9398193359375,-0.284423828125,-0.037841796875,-2.868652105331421,1.15966796875,0.8544921278953552,16
1734787005.2023747,-0.93603515625,-0.2874755859375,-0.028564453125,-2.50244140625,0.4882812201976776,0.0610351525247097,17
1734787005.203376,-0.9560546875,-0.2916259765625,-0.03955078125,-3.479003667831421,1.15966796875,-0.6103515625,17
1734787005.204376,-0.9605712890625,-0.281005859375,-0.028564453125,-3.906249761581421,1.8920897245407104,0.54931640625,17
1734787005.204376,-0.9268798828125,-0.27880859375,-0.017578125,-2.0751953125,-0.6713866591453552,1.0986328125,17
1734787005.2053735,-0.952392578125,-0.2957763671875,-0.0230712890625,-1.220703125,-0.54931640625,1.5258787870407104,17
1734787005.3007085,-0.9410400390625,-0.2930908203125,-0.028564453125,0.7934569716453552,-2.38037109375,-0.0610351525247097,17
1734787005.4217234,-0.95263671875,-0.2928466796875,-0.03076171875,1.4648436307907104,-0.6103515625,-0.3662109076976776,17
1734787005.541404,-0.936767578125,-0.289306640625,-0.0316162109375,-2.3193359375,-1.3427733182907104,-0.7324218153953552,17
1734787005.6611578,-0.9527587890625,-0.29345703125,-0.0443115234375,-1.5258787870407104,-4.150390625,-1.5258787870407104,17
1734787005.7819054,-0.946044921875,-0.2916259765625,-0.0367431640625,-1.8920897245407104,-0.9765624403953552,-0.7324218153953552,17
1734787005.9007995,-0.9515380859375,-0.275634765625,-0.034423828125,-2.25830078125,1.6479490995407104,0.7324218153953552,17
1734787006.0211031,-0.934326171875,-0.280029296875,-0.0302734375,-1.2817381620407104,0.4882812201976776,0.0610351525247097,17
1734787006.1406994,-0.8541259765625,-0.2535400390625,-0.03955078125,3.662109136581421,-8.4228515625,-9.033203125,17
1734787006.2605183,-0.6531982421875,-0.1732177734375,-0.0914306640625,3.723144292831421,-0.6103515625,-12.390135765075684,17
1734787006.3807855,-0.7359619140625,-0.1685791015625,-0.08154296875,10.009765625,-10.131834983825684,-11.291502952575684,17
1734787006.501345,-0.9166259765625,-0.138916015625,-0.1002197265625,16.845703125,-9.58251953125,-20.446775436401367,17
1734787006.620959,-0.89794921875,-0.2069091796875,-0.0611572265625,1.0986328125,10.009765625,-7.019042491912842,17
1734787006.741522,-1.2047119140625,-0.2205810546875,-0.13037109375,-3.540038824081421,0.3662109076976776,3.479003667831421,17
1734787006.8614082,-1.2989501953125,-0.2449951171875,-0.1090087890625,-8.9111328125,11.230467796325684,4.45556640625,17
1734787006.9818459,-1.5859375,-0.2462158203125,-0.2071533203125,-3.112792730331421,-8.60595703125,2.3193359375,17
1734787007.1016905,-1.3116455078125,-0.21240234375,-0.1102294921875,1.5258787870407104,0.0610351525247097,-2.38037109375,17
1734787007.221562,-1.173583984375,-0.2884521484375,-0.1019287109375,-3.417968511581421,-7.080077648162842,-8.97216796875,17
1734787007.340817,-1.02197265625,-0.2010498046875,-0.115966796875,-10.498045921325684,1.6479490995407104,7.995604991912842,17
1734787007.4610236,-0.9420166015625,-0.1490478515625,-0.0885009765625,-3.112792730331421,-15.319823265075684,-0.54931640625,17
1734787007.5818324,-0.580810546875,-0.1043701171875,-0.060791015625,-7.324218273162842,23.376462936401367,16.29638671875,17
1734787007.7018933,-0.5797119140625,-0.16552734375,-0.0631103515625,-3.845214605331421,27.893064498901367,25.024412155151367,17
1734787007.8212342,-1.1844482421875,-0.21826171875,-0.10888671875,6.408690929412842,-22.216794967651367,-6.103515148162842,17
1734787007.941336,-0.7784423828125,-0.3067626953125,0.02490234375,1.3427733182907104,0.4882812201976776,0.1831054538488388,17
1734787008.0612285,-1.068115234375,-0.258056640625,-0.064697265625,-7.812499523162842,1.8310545682907104,2.25830078125,17
1734787008.1816885,-0.9449462890625,-0.2515869140625,-0.0169677734375,-2.197265625,-5.859374523162842,-0.4882812201976776,17
1734787008.6900072,-0.9449462890625,-0.2598876953125,-0.01904296875,-2.50244140625,4.150390625,1.15966796875,18
1734787008.690718,-0.96630859375,-0.2655029296875,-0.0152587890625,0.2441406100988388,1.15966796875,-0.1831054538488388,18
1734787008.6912148,-0.91845703125,-0.274169921875,0.0054931640625,-0.7934569716453552,1.5869139432907104,0.54931640625,18
1734787008.6919863,-0.95654296875,-0.2586669921875,-0.0047607421875,-1.3427733182907104,3.723144292831421,0.7934569716453552,18
1734787008.7811627,-0.956298828125,-0.2587890625,-0.0018310546875,-0.7934569716453552,1.220703125,-2.3193359375,18
1734787008.9012692,-0.9381103515625,-0.2645263671875,0.0047607421875,-1.8920897245407104,2.929687261581421,-0.2441406100988388,18
1734787009.0209954,-0.9471435546875,-0.270751953125,0.00634765625,0.1220703050494194,0.4882812201976776,1.6479490995407104,18
1734787009.1409354,-0.9669189453125,-0.2581787109375,0.0091552734375,-0.1220703050494194,1.2817381620407104,2.44140625,18
1734787009.261575,-0.9415283203125,-0.270751953125,0.0111083984375,-0.2441406100988388,0.6103515625,0.9155272841453552,18
1734787009.381837,-0.96826171875,-0.2686767578125,0.015869140625,-2.01416015625,1.03759765625,-0.54931640625,18
1734787009.5012546,-0.94580078125,-0.277587890625,0.0089111328125,-0.8544921278953552,0.9155272841453552,0.54931640625,18
1734787009.6211045,-0.938720703125,-0.268798828125,0.005126953125,1.8920897245407104,-1.5258787870407104,1.15966796875,18
1734787009.741392,-0.9029541015625,-0.259765625,0.0042724609375,3.112792730331421,-6.774901866912842,-6.591796398162842,18
1734787009.8612757,-0.7630615234375,-0.2122802734375,-0.007080078125,3.479003667831421,-13.366698265075684,-17.333984375,18
1734787009.981546,-0.5670166015625,-0.1544189453125,0.0048828125,-9.033203125,-16.78466796875,-19.22607421875,18
1734787010.101353,-0.7198486328125,-0.067626953125,-0.053466796875,5.126952648162842,-8.23974609375,-11.230467796325684,18
1734787010.2218523,-1.0213623046875,-0.1102294921875,-0.1402587890625,11.596678733825684,-4.7607421875,-5.371093273162842,18
1734787010.3413308,-0.984130859375,-0.2197265625,-0.0382080078125,7.812499523162842,-5.126952648162842,-4.0283203125,18
1734787010.460782,-1.3697509765625,-0.2491455078125,-0.0950927734375,8.60595703125,-21.240232467651367,-3.234863042831421,18
1734787010.5817442,-1.7357177734375,-0.2493896484375,-0.2327880859375,6.896972179412842,-9.27734375,2.868652105331421,18
1734787010.7014127,-1.3253173828125,-0.2105712890625,-0.1279296875,-4.0283203125,-4.0283203125,-2.929687261581421,18
1734787010.8808963,-1.22900390625,-0.18798828125,-0.15283203125,-3.601073980331421,1.220703125,-0.7324218153953552,18
1734787010.940799,-0.8692626953125,-0.166259765625,-0.0584716796875,-7.629394054412842,0.1220703050494194,-0.7324218153953552,18
1734787011.0617113,-0.710693359375,-0.1329345703125,-0.0718994140625,-5.676269054412842,2.685546636581421,-3.784179449081421,18
1734787011.1813562,-0.4713134765625,-0.0618896484375,-0.111572265625,-14.404295921325684,42.297359466552734,23.681638717651367,18
1734787011.3014345,-0.618408203125,-0.2633056640625,-0.028564453125,-10.375975608825684,60.485836029052734,28.686521530151367,18
1734787011.4212914,-0.913818359375,-0.103515625,-0.052001953125,-20.751951217651367,88.92821502685547,19.8974609375,18
1734787011.541264,-1.0118408203125,-0.253662109375,-0.02880859375,11.108397483825684,-44.860836029052734,-10.620116233825684,18
1734787011.6609557,-0.9127197265625,-0.2403564453125,-0.00390625,-2.0751953125,1.7700194120407104,3.479003667831421,18
1734787012.2190733,-1.012451171875,-0.2435302734375,-0.0557861328125,-0.8544921278953552,-0.2441406100988388,0.7934569716453552,19
1734787012.2201786,-0.951904296875,-0.2420654296875,-0.017822265625,0.6713866591453552,3.173827886581421,2.3193359375,19
1734787012.2208872,-0.944091796875,-0.24853515625,-0.0177001953125,0.1220703050494194,-0.9155272841453552,2.13623046875,19
1734787012.2214088,-0.987060546875,-0.250732421875,-0.0283203125,-1.5258787870407104,-2.25830078125,-0.1220703050494194,19
1734787012.2614932,-0.9713134765625,-0.252685546875,-0.0401611328125,-1.5869139432907104,-1.5869139432907104,2.685546636581421,19
1734787012.381496,-0.9541015625,-0.2589111328125,-0.037841796875,-1.15966796875,-0.6103515625,2.50244140625,19
1734787012.5011053,-0.9605712890625,-0.2598876953125,-0.0250244140625,-0.9155272841453552,0.7934569716453552,1.9531248807907104,19
1734787012.6208348,-0.964111328125,-0.2557373046875,-0.0313720703125,0.1831054538488388,2.197265625,-0.0610351525247097,19
1734787012.7414458,-0.96435546875,-0.2596435546875,-0.0333251953125,-0.4882812201976776,0.4882812201976776,1.4038084745407104,19
1734787012.8613114,-0.9483642578125,-0.270263671875,-0.036865234375,-0.7934569716453552,-1.3427733182907104,-0.30517578125,19
1734787012.9813862,-0.9124755859375,-0.2547607421875,-0.0396728515625,-1.15966796875,-2.197265625,-1.5258787870407104,19
1734787013.100643,-0.8486328125,-0.200439453125,-0.05517578125,7.690429210662842,-16.41845703125,-16.9677734375,19
1734787013.221278,-0.518798828125,-0.1385498046875,-0.027099609375,-7.446288585662842,-9.70458984375,-14.099120140075684,19
1734787013.3411777,-0.69970703125,-0.0850830078125,-0.1884765625,0.6103515625,-15.808104515075684,-12.512206077575684,19
1734787013.4608269,-1.0341796875,-0.0899658203125,-0.1976318359375,19.10400390625,-4.2724609375,-5.432128429412842,19
1734787013.580567,-1.169921875,-0.1678466796875,-0.1785888671875,6.347655773162842,-1.6479490995407104,-12.512206077575684,19
1734787013.761596,-1.2349853515625,-0.2076416015625,-0.162109375,-7.812499523162842,19.287109375,4.150390625,19
1734787013.8207643,-1.744384765625,-0.1634521484375,-0.3704833984375,9.94873046875,-28.503416061401367,-8.7890625,19
1734787013.94102,-1.31689453125,-0.1810302734375,-0.185302734375,5.615233898162842,13.000487327575684,1.3427733182907104,19
1734787014.060754,-1.1951904296875,-0.2049560546875,-0.186279296875,0.1831054538488388,10.620116233825684,-2.563476324081421,19
1734787014.1817677,-0.9248046875,-0.182373046875,-0.173095703125,-3.662109136581421,5.432128429412842,4.08935546875,19
1734787014.2408862,-0.8056640625,-0.1429443359375,-0.1353759765625,-10.375975608825684,19.47021484375,6.713866710662842,19
1734787014.3616207,-0.5064697265625,-0.0869140625,-0.0958251953125,-5.676269054412842,28.198240280151367,15.869139671325684,19
1734787014.481691,-0.5665283203125,-0.1614990234375,0.041259765625,-7.141112804412842,38.51318359375,28.564451217651367,19
1734787014.6017818,-1.2674560546875,-0.1895751953125,-0.1414794921875,4.150390625,3.723144292831421,3.723144292831421,19
1734787014.721696,-0.9287109375,-0.308837890625,-0.042724609375,-5.126952648162842,-4.2724609375,-3.784179449081421,19
1734787014.8413453,-0.9613037109375,-0.2119140625,-0.04638671875,-1.4648436307907104,-0.1831054538488388,3.540038824081421,19
1734787014.9613926,-0.9306640625,-0.227294921875,-0.00830078125,0.6103515625,2.563476324081421,0.0610351525247097,19
1734787015.0812936,-0.976318359375,-0.22314453125,-0.0418701171875,2.563476324081421,1.8920897245407104,1.2817381620407104,19
1734787015.201454,-0.941162109375,-0.2471923828125,-0.02978515625,2.929687261581421,0.7324218153953552,-1.220703125,19
1734787015.7487564,-0.984130859375,-0.2633056640625,-0.0362548828125,-0.1220703050494194,2.44140625,0.4272460639476776,20
1734787015.7492566,-0.9781494140625,-0.2344970703125,-0.0299072265625,-2.746581792831421,2.197265625,0.8544921278953552,20
1734787015.7507968,-0.9976806640625,-0.228759765625,-0.031982421875,0.1831054538488388,1.4038084745407104,0.6713866591453552,20
1734787015.751454,-0.9495849609375,-0.23681640625,-0.0206298828125,0.0610351525247097,1.9531248807907104,-0.6713866591453552,20
1734787015.8012857,-0.9322509765625,-0.2330322265625,-0.01611328125,1.7089842557907104,0.3662109076976776,-2.197265625,20
1734787015.921288,-0.957275390625,-0.2301025390625,-0.0323486328125,0.8544921278953552,-6.042479991912842,-4.7607421875,20
1734787016.0413196,-0.9923095703125,-0.201904296875,-0.048583984375,1.4648436307907104,-5.798339366912842,-5.554198741912842,20
1734787016.1615198,-0.9801025390625,-0.2288818359375,-0.06201171875,-1.3427733182907104,-1.9531248807907104,-1.15966796875,20
1734787016.2813907,-0.9896240234375,-0.2210693359375,-0.070556640625,-2.50244140625,2.563476324081421,3.601073980331421,20
1734787016.4014807,-0.967041015625,-0.1947021484375,-0.0587158203125,2.0751953125,3.417968511581421,3.356933355331421,20
1734787016.521323,-0.9566650390625,-0.23681640625,-0.03466796875,-0.1831054538488388,1.6479490995407104,0.9765624403953552,20
1734787016.6413226,-0.956298828125,-0.235595703125,-0.0416259765625,-3.173827886581421,-0.30517578125,1.5258787870407104,20
1734787016.761376,-0.88916015625,-0.220703125,-0.0372314453125,-2.746581792831421,-3.845214605331421,-2.746581792831421,20
1734787016.8811774,-0.7012939453125,-0.146484375,-0.0699462890625,-2.3193359375,-9.033203125,-10.192870140075684,20
1734787017.0014198,-0.7186279296875,-0.1097412109375,-0.15673828125,-3.723144292831421,-12.878417015075684,-10.803221702575684,20
1734787017.1212118,-0.82763671875,-0.16552734375,-0.0928955078125,5.676269054412842,-25.268552780151367,-7.690429210662842,20
1734787017.2418683,-0.9229736328125,-0.1790771484375,-0.029052734375,5.126952648162842,1.2817381620407104,0.7324218153953552,20
1734787017.3613584,-1.13525390625,-0.16650390625,-0.108154296875,2.13623046875,-3.967284917831421,-16.7236328125,20
1734787017.480871,-1.476318359375,-0.224853515625,-0.2447509765625,-1.4648436307907104,-18.98193359375,-16.9677734375,20
1734787017.601331,-1.5556640625,-0.1654052734375,-0.211181640625,8.85009765625,0.7934569716453552,10.192870140075684,20
1734787017.7214036,-1.29736328125,-0.1932373046875,-0.133056640625,-8.11767578125,12.756346702575684,4.08935546875,20
1734787017.8410053,-1.199462890625,-0.1788330078125,-0.168701171875,-7.507323741912842,5.920409679412842,3.173827886581421,20
1734787017.9605181,-0.87890625,-0.1463623046875,-0.0931396484375,-5.371093273162842,-5.432128429412842,3.967284917831421,20
1734787018.0813324,-0.688232421875,-0.107177734375,-0.0823974609375,-7.263183116912842,9.46044921875,11.901854515075684,20
1734787018.2013357,-0.6612548828125,-0.144287109375,-0.061279296875,-6.042479991912842,19.59228515625,13.610838890075684,20
1734787018.321532,-0.8408203125,-0.162109375,-0.05859375,1.03759765625,9.94873046875,8.1787109375,20
1734787018.4411547,-1.0831298828125,-0.1739501953125,-0.0673828125,0.3662109076976776,0.54931640625,0.9155272841453552,20
1734787018.5612302,-0.86279296875,-0.2828369140625,0.031005859375,1.7089842557907104,-2.01416015625,2.929687261581421,20
1734787018.6815312,-1.00390625,-0.2127685546875,-0.0335693359375,3.173827886581421,8.11767578125,4.45556640625,20
1734787019.2626002,-0.980224609375,-0.2388916015625,-0.0361328125,4.8828125,-4.57763671875,-4.08935546875,21
1734787019.2636006,-0.9508056640625,-0.254638671875,-0.010009765625,-0.4272460639476776,-0.7934569716453552,1.2817381620407104,21
1734787019.2645998,-0.9752197265625,-0.228759765625,-0.0174560546875,-2.746581792831421,2.38037109375,3.601073980331421,21
1734787019.265558,-0.9632568359375,-0.2493896484375,-0.0225830078125,-3.173827886581421,-0.0610351525247097,0.7324218153953552,21
1734787019.2813716,-0.9801025390625,-0.2515869140625,-0.014892578125,-1.6479490995407104,-2.807616949081421,2.01416015625,21
1734787019.4011333,-0.9710693359375,-0.2509765625,-0.01513671875,-1.7089842557907104,0.3662109076976776,0.6103515625,21
1734787019.5215,-0.9620361328125,-0.251708984375,-0.017333984375,-1.2817381620407104,0.8544921278953552,0.6713866591453552,21
1734787019.7007518,-0.9674072265625,-0.248779296875,-0.012451171875,-1.5869139432907104,1.4648436307907104,1.4648436307907104,21
1734787019.7614958,-0.970458984375,-0.259765625,-0.0032958984375,-1.4038084745407104,-2.01416015625,0.6103515625,21
1734787019.881297,-0.97119140625,-0.2694091796875,-0.0206298828125,-4.69970703125,-2.01416015625,-0.1220703050494194,21
1734787020.00117,-0.9481201171875,-0.2476806640625,-0.0045166015625,-2.0751953125,-1.0986328125,1.8920897245407104,21
1734787020.1213686,-0.9453125,-0.2537841796875,-0.0015869140625,0.9765624403953552,1.03759765625,0.9765624403953552,21
1734787020.241159,-0.934814453125,-0.25048828125,-0.013916015625,1.15966796875,-4.21142578125,-7.202147960662842,21
1734787020.3612955,-0.7802734375,-0.194580078125,-0.04931640625,-2.3193359375,-10.498045921325684,-10.864256858825684,21
1734787020.4813974,-0.7366943359375,-0.1019287109375,-0.0865478515625,6.469726085662842,-8.72802734375,-12.451170921325684,21
1734787020.6014159,-0.693359375,-0.1324462890625,-0.03564453125,5.065917491912842,1.7700194120407104,-5.065917491912842,21
1734787020.7212288,-0.9656982421875,-0.1834716796875,-0.12353515625,1.5258787870407104,-1.6479490995407104,-7.080077648162842,21
1734787020.8412027,-0.9776611328125,-0.173828125,-0.0362548828125,6.591796398162842,-1.7700194120407104,-7.446288585662842,21
1734787020.9614437,-1.0823974609375,-0.218505859375,-0.0633544921875,4.08935546875,-3.479003667831421,-2.746581792831421,21
1734787021.0808082,-1.3145751953125,-0.21435546875,-0.131591796875,-1.6479490995407104,-20.751951217651367,0.8544921278953552,21
1734787021.2013254,-1.4462890625,-0.2584228515625,-0.1309814453125,-6.164550304412842,22.094724655151367,14.892577171325684,21
1734787021.3214803,-1.3236083984375,-0.2064208984375,-0.1136474609375,-6.042479991912842,2.3193359375,-1.15966796875,21
1734787021.4420314,-1.098388671875,-0.272216796875,-0.0565185546875,-2.197265625,-5.493163585662842,-1.5869139432907104,21
1734787021.5616071,-0.9271240234375,-0.206787109375,-0.0447998046875,-4.21142578125,5.249022960662842,8.23974609375,21
1734787021.6815464,-0.7369384765625,-0.182861328125,-0.054931640625,5.0048828125,-9.21630859375,-1.03759765625,21
1734787021.8014443,-0.495849609375,-0.111328125,-0.03076171875,-0.54931640625,7.751464366912842,4.82177734375,21
1734787021.9212697,-0.6373291015625,-0.1806640625,-0.051025390625,-7.019042491912842,41.137691497802734,22.277830123901367,21
1734787022.0410306,-1.11083984375,-0.193115234375,-0.09521484375,7.629394054412842,-21.240232467651367,-5.187987804412842,21
1734787022.1615422,-0.818359375,-0.2640380859375,0.0499267578125,-2.197265625,-0.9155272841453552,-1.2817381620407104,21
1734787022.2816813,-1.01171875,-0.2325439453125,-0.0272216796875,-4.2724609375,6.286620616912842,5.310058116912842,21
1734787022.7850995,-0.9208984375,-0.2286376953125,-0.0040283203125,-1.5869139432907104,3.601073980331421,2.25830078125,22
1734787022.7856,-0.9482421875,-0.2509765625,-0.0042724609375,-4.94384765625,2.746581792831421,1.0986328125,22
1734787022.7866004,-0.971435546875,-0.244873046875,-0.0106201171875,-2.624511480331421,-2.0751953125,0.30517578125,22
1734787022.7871246,-0.949951171875,-0.23046875,0.006591796875,-0.9765624403953552,0.7934569716453552,0.0610351525247097,22
1734787022.8810189,-0.98291015625,-0.236083984375,-0.0025634765625,1.5869139432907104,1.220703125,0.0,22
1734787023.001447,-0.940673828125,-0.2581787109375,-0.0006103515625,3.417968511581421,-1.15966796875,-0.8544921278953552,22
1734787023.1214645,-0.974853515625,-0.254150390625,0.001708984375,0.2441406100988388,1.6479490995407104,2.0751953125,22
1734787023.2415931,-0.9661865234375,-0.2479248046875,0.0074462890625,-0.9765624403953552,0.2441406100988388,1.03759765625,22
1734787023.3612666,-0.9561767578125,-0.2547607421875,0.005859375,-1.0986328125,0.6713866591453552,0.6103515625,22
1734787023.4810994,-0.9638671875,-0.26416015625,-0.0054931640625,-1.4038084745407104,-0.8544921278953552,0.0610351525247097,22
1734787023.6015766,-0.971435546875,-0.26318359375,0.0001220703125,-2.990722417831421,-0.3662109076976776,1.15966796875,22
1734787023.7214866,-0.91748046875,-0.2515869140625,0.0042724609375,-3.540038824081421,-1.5869139432907104,-0.2441406100988388,22
1734787023.8413115,-0.8499755859375,-0.2286376953125,0.00732421875,-0.7324218153953552,-11.474608421325684,-8.30078125,22
1734787023.9612792,-0.59716796875,-0.118408203125,-0.006103515625,-3.601073980331421,-7.324218273162842,-10.498045921325684,22
1734787024.0813756,-0.836669921875,-0.179443359375,-0.14794921875,1.15966796875,-27.404783248901367,-15.380858421325684,22
1734787024.2011788,-0.823486328125,-0.100830078125,-0.0811767578125,10.803221702575684,-23.132322311401367,-16.11328125,22
1734787024.3214934,-0.951904296875,-0.14501953125,-0.117431640625,10.131834983825684,-5.249022960662842,-13.549803733825684,22
1734787024.4423413,-1.0828857421875,-0.1456298828125,-0.1055908203125,10.803221702575684,1.0986328125,-8.97216796875,22
1734787024.5610244,-1.444091796875,-0.13623046875,-0.180419921875,-0.2441406100988388,14.099120140075684,-2.0751953125,22
1734787024.6805458,-1.515869140625,-0.152587890625,-0.238037109375,2.38037109375,-1.15966796875,2.44140625,22
1734787024.801156,-1.3221435546875,-0.1527099609375,-0.1309814453125,-9.521484375,8.23974609375,9.033203125,22
1734787024.9213114,-1.1768798828125,-0.1796875,-0.0958251953125,-14.160155296325684,5.615233898162842,1.7700194120407104,22
1734787025.0406482,-1.093505859375,-0.169677734375,-0.128662109375,-6.225585460662842,7.019042491912842,13.610838890075684,22
1734787025.161045,-0.8714599609375,-0.122314453125,-0.0576171875,0.7934569716453552,-0.1220703050494194,2.0751953125,22
1734787025.2814913,-0.6650390625,-0.0682373046875,-0.1005859375,1.0986328125,0.6103515625,2.685546636581421,22
1734787025.401331,-0.5194091796875,-0.1171875,-0.060302734375,1.8310545682907104,31.127927780151367,25.024412155151367,22
1734787025.5811985,-1.1805419921875,-0.20458984375,-0.14306640625,20.874021530151367,-26.916501998901367,-5.493163585662842,22
1734787025.640975,-0.9290771484375,-0.26416015625,-0.038330078125,5.249022960662842,-1.7700194120407104,-0.0610351525247097,22
1734787025.760853,-0.947998046875,-0.2132568359375,-0.021240234375,-8.60595703125,1.7089842557907104,2.807616949081421,22
1734787026.2762578,-0.9503173828125,-0.1923828125,-0.0423583984375,-4.33349609375,4.82177734375,3.051757574081421,23
1734787026.2774656,-1.001953125,-0.2261962890625,-0.0567626953125,-1.6479490995407104,0.9765624403953552,0.1220703050494194,23
1734787026.2779655,-0.9383544921875,-0.2410888671875,-0.0303955078125,-1.0986328125,-0.0610351525247097,1.4038084745407104,23
1734787026.2784655,-0.9560546875,-0.2259521484375,-0.0250244140625,-1.4648436307907104,-0.7324218153953552,0.54931640625,23
1734787026.3611898,-0.9420166015625,-0.2276611328125,-0.0445556640625,-2.13623046875,4.2724609375,-0.6103515625,23
1734787026.4814777,-1.005615234375,-0.242431640625,-0.064697265625,-1.7700194120407104,4.82177734375,5.249022960662842,23
1734787026.601539,-0.957763671875,-0.2333984375,-0.0234375,-0.30517578125,3.967284917831421,6.774901866912842,23
1734787026.72099,-0.952392578125,-0.2664794921875,-0.022216796875,-3.906249761581421,2.929687261581421,3.479003667831421,23
1734787026.8413944,-0.9427490234375,-0.2567138671875,-0.0316162109375,-7.141112804412842,2.13623046875,2.746581792831421,23
1734787026.9610565,-0.98095703125,-0.2587890625,-0.0341796875,-3.662109136581421,-1.15966796875,2.25830078125,23
1734787027.0803351,-0.9454345703125,-0.2532958984375,-0.015625,0.7934569716453552,-1.6479490995407104,0.8544921278953552,23
1734787027.2015662,-0.892578125,-0.240966796875,-0.0260009765625,8.11767578125,-8.6669921875,-5.432128429412842,23
1734787027.3214455,-0.787841796875,-0.19287109375,-0.0595703125,11.047362327575684,-16.4794921875,-22.277830123901367,23
1734787027.4413195,-0.70703125,-0.16015625,-0.0989990234375,-2.624511480331421,-10.742186546325684,-15.136717796325684,23
1734787027.5614445,-0.603515625,-0.07958984375,-0.1485595703125,3.173827886581421,-24.841306686401367,-14.404295921325684,23
1734787027.680907,-0.936767578125,-0.0924072265625,-0.1453857421875,-1.2817381620407104,-12.268065452575684,-17.88330078125,23
1734787027.8014092,-1.163330078125,-0.138427734375,-0.2701416015625,-1.9531248807907104,1.4038084745407104,-10.131834983825684,23
1734787027.9212048,-1.1768798828125,-0.1500244140625,-0.2401123046875,4.0283203125,3.723144292831421,0.30517578125,23
1734787028.041135,-1.782958984375,-0.0413818359375,-0.282470703125,8.97216796875,-26.977537155151367,-3.784179449081421,23
1734787028.1613903,-1.3856201171875,-0.084716796875,-0.26806640625,-6.042479991912842,19.59228515625,0.7934569716453552,23
1734787028.281289,-1.240234375,-0.1243896484375,-0.27978515625,-5.432128429412842,12.512206077575684,-1.220703125,23
1734787028.4007971,-1.1072998046875,-0.0897216796875,-0.2469482421875,-5.0048828125,1.220703125,12.512206077575684,23
1734787028.5214956,-0.9052734375,-0.07666015625,-0.157958984375,-3.906249761581421,11.230467796325684,15.197752952575684,23
1734787028.6413784,-0.6129150390625,-0.1112060546875,-0.0888671875,-5.432128429412842,29.541013717651367,21.728513717651367,23
1734787028.7613928,-0.5098876953125,-0.119384765625,-0.0816650390625,-3.540038824081421,44.921871185302734,30.517576217651367,23
1734787028.881117,-0.887451171875,-0.248291015625,-0.0069580078125,18.00537109375,-18.49365234375,-10.375975608825684,23
1734787029.0015998,-0.861572265625,-0.30126953125,0.0675048828125,6.774901866912842,16.78466796875,12.145995140075684,23
1734787029.1214132,-1.0416259765625,-0.2265625,-0.01318359375,-1.220703125,-8.23974609375,-2.0751953125,23
1734787029.2410657,-0.8878173828125,-0.2376708984375,0.0205078125,-4.08935546875,0.54931640625,0.1220703050494194,23
1734787029.7935975,-1.013671875,-0.2218017578125,-0.0223388671875,-5.0048828125,-1.9531248807907104,1.7089842557907104,24
1734787029.7945054,-0.9610595703125,-0.235595703125,-0.0064697265625,-0.3662109076976776,-3.356933355331421,0.0610351525247097,24
1734787029.795139,-0.9453125,-0.2412109375,-0.00634765625,0.6103515625,0.1831054538488388,0.7934569716453552,24
1734787029.7956388,-0.965576171875,-0.2506103515625,0.006103515625,-0.2441406100988388,1.5258787870407104,0.7324218153953552,24
1734787029.8413484,-0.935302734375,-0.2413330078125,-0.000244140625,-0.1220703050494194,1.7700194120407104,0.6713866591453552,24
1734787029.9611015,-0.9429931640625,-0.25439453125,-0.0150146484375,1.7700194120407104,-0.6103515625,0.0,24
1734787030.0809073,-0.962158203125,-0.2503662109375,-0.0137939453125,1.8310545682907104,-0.3662109076976776,1.4648436307907104,24
1734787030.201279,-0.9228515625,-0.28564453125,-0.0177001953125,-4.82177734375,0.1831054538488388,3.845214605331421,24
1734787030.3807282,-0.94580078125,-0.2701416015625,-0.0107421875,-5.615233898162842,-0.2441406100988388,5.615233898162842,24
1734787030.4412744,-0.973876953125,-0.2542724609375,-0.0013427734375,-0.8544921278953552,4.2724609375,2.807616949081421,24
1734787030.561196,-0.94482421875,-0.27197265625,-0.0001220703125,4.82177734375,5.615233898162842,1.15966796875,24
1734787030.6807046,-0.9412841796875,-0.29833984375,0.0164794921875,1.4038084745407104,2.38037109375,2.563476324081421,24
1734787030.8012671,-0.8875732421875,-0.26806640625,0.0086669921875,2.685546636581421,-4.7607421875,-1.7700194120407104,24
1734787030.921261,-0.6611328125,-0.183837890625,-0.047607421875,-0.1831054538488388,-13.854979515075684,-14.526366233825684,24
1734787031.0408225,-0.6309814453125,-0.172119140625,-0.063720703125,-8.60595703125,-28.198240280151367,-17.08984375,24
1734787031.1604323,-0.63525390625,-0.1864013671875,-0.0518798828125,-3.356933355331421,-3.479003667831421,-8.48388671875,24
1734787031.2806907,-1.0848388671875,-0.1954345703125,-0.087890625,-2.01416015625,18.73779296875,4.8828125,24
1734787031.459708,-1.0799560546875,-0.166015625,-0.040283203125,-9.82666015625,-37.78076171875,-31.066892623901367,24
1734787031.521295,-1.4775390625,-0.25537109375,-0.1077880859375,-12.451170921325684,0.3662109076976776,-4.69970703125,24
1734787031.6414075,-1.650146484375,-0.2205810546875,-0.2340087890625,3.723144292831421,5.676269054412842,14.099120140075684,24
1734787031.7608654,-1.251220703125,-0.19287109375,-0.0989990234375,-1.3427733182907104,10.803221702575684,2.13623046875,24
1734787031.8810253,-1.0911865234375,-0.26025390625,-0.076416015625,-2.929687261581421,5.615233898162842,2.563476324081421,24
1734787032.0013285,-0.9669189453125,-0.1854248046875,-0.1383056640625,2.50244140625,1.03759765625,6.469726085662842,24
1734787032.1211534,-0.7603759765625,-0.1190185546875,-0.0496826171875,-0.1220703050494194,5.920409679412842,-0.1220703050494194,24
1734787032.2412639,-0.5089111328125,-0.1229248046875,-0.0369873046875,-7.385253429412842,21.484373092651367,15.136717796325684,24
1734787032.361151,-0.76171875,-0.2059326171875,-0.0740966796875,5.737304210662842,11.352538108825684,15.563963890075684,24
1734787032.481131,-1.1470947265625,-0.158935546875,0.0013427734375,-5.0048828125,11.779784202575684,1.9531248807907104,24
1734787032.6016593,-0.99853515625,-0.262939453125,0.01806640625,2.01416015625,-7.995604991912842,-4.69970703125,24
1734787032.721327,-0.90625,-0.25830078125,-0.0059814453125,-4.57763671875,-0.7934569716453552,0.54931640625,24
1734787033.3264165,-0.9842529296875,-0.248291015625,-0.0184326171875,-4.5166015625,-2.197265625,-0.9765624403953552,25
1734787033.328659,-0.9573974609375,-0.267822265625,0.0152587890625,-3.051757574081421,-1.8310545682907104,0.6713866591453552,25
1734787033.3291597,-0.9241943359375,-0.2440185546875,0.0052490234375,-1.3427733182907104,3.601073980331421,4.57763671875,25
1734787033.3298292,-0.926513671875,-0.2625732421875,0.0428466796875,-1.2817381620407104,-3.295898199081421,0.4882812201976776,25
1734787033.3303277,-1.00390625,-0.2769775390625,-0.01416015625,-4.638671875,4.7607421875,1.3427733182907104,25
1734787033.3812861,-0.9520263671875,-0.2576904296875,0.010986328125,-0.3662109076976776,1.2817381620407104,2.44140625,25
1734787033.5004141,-0.97802734375,-0.286376953125,0.00048828125,-2.44140625,2.990722417831421,3.112792730331421,25
1734787033.621419,-0.9549560546875,-0.279052734375,0.0157470703125,-3.417968511581421,3.112792730331421,4.57763671875,25
1734787033.7404475,-0.94873046875,-0.27783203125,0.03466796875,-0.1220703050494194,2.3193359375,3.784179449081421,25
1734787033.860804,-0.9619140625,-0.2652587890625,0.0301513671875,0.0,2.868652105331421,0.1831054538488388,25
1734787033.9807923,-0.95166015625,-0.292724609375,0.0224609375,0.0,0.1831054538488388,-0.3662109076976776,25
1734787034.1008122,-0.9527587890625,-0.29638671875,0.0362548828125,-1.3427733182907104,1.4038084745407104,1.0986328125,25
1734787034.2208605,-0.9287109375,-0.2860107421875,0.03125,-1.5869139432907104,2.50244140625,1.4648436307907104,25
1734787034.400766,-0.8992919921875,-0.2763671875,0.0322265625,0.7324218153953552,-7.141112804412842,-4.2724609375,25
1734787034.460867,-0.8270263671875,-0.24755859375,-0.01025390625,0.7934569716453552,-14.709471702575684,-10.864256858825684,25
1734787034.58065,-0.6884765625,-0.163330078125,0.037841796875,3.173827886581421,5.187987804412842,-6.652831554412842,25
1734787034.7009997,-0.7738037109375,-0.205078125,-0.02783203125,0.9155272841453552,-12.939452171325684,-4.33349609375,25
1734787034.8209288,-0.7706298828125,-0.1483154296875,-0.0208740234375,-1.3427733182907104,-8.36181640625,-16.6015625,25
1734787034.9410837,-1.0592041015625,-0.2137451171875,-0.062744140625,9.27734375,-8.85009765625,-16.6015625,25
