Timestamp,Accel X,Accel Y,Accel Z,Gyro X,Gyro Y,Gyro Z,Start Flag
1733491061.9683373,0.94873046875,-0.20263671875,0.269287109375,-0.8544921278953552,-3.051757574081421,-0.4882812201976776,0
1733491061.9693923,0.9373779296875,-0.1986083984375,0.2701416015625,-0.30517578125,1.7700194120407104,1.5258787870407104,0
1733491061.9703941,0.9344482421875,-0.2066650390625,0.2777099609375,-0.54931640625,-1.03759765625,0.7934569716453552,0
1733491061.9713924,0.9315185546875,-0.2005615234375,0.278564453125,-0.6103515625,1.2817381620407104,0.6103515625,0
1733491061.9723933,0.912353515625,-0.1983642578125,0.2862548828125,-0.7324218153953552,-0.4272460639476776,1.3427733182907104,0
1733491062.1199484,0.919677734375,-0.1981201171875,0.289794921875,-0.6713866591453552,0.4272460639476776,0.7324218153953552,0
1733491062.1804202,0.916259765625,-0.1964111328125,0.28515625,0.2441406100988388,-0.7324218153953552,0.7324218153953552,0
1733491062.300632,0.932861328125,-0.2005615234375,0.2850341796875,0.7934569716453552,-0.3662109076976776,0.4882812201976776,0
1733491062.4199777,0.9337158203125,-0.187744140625,0.2943115234375,0.4272460639476776,0.6103515625,-0.2441406100988388,0
1733491062.5414271,0.9385986328125,-0.1943359375,0.2811279296875,0.1831054538488388,2.38037109375,0.1831054538488388,0
1733491062.6609094,0.935791015625,-0.1998291015625,0.28076171875,0.0,1.5258787870407104,0.4272460639476776,0
1733491062.781564,0.94482421875,-0.200927734375,0.28125,0.9155272841453552,-0.9765624403953552,-0.2441406100988388,0
1733491062.9011858,0.9329833984375,-0.19091796875,0.2742919921875,-0.9765624403953552,2.44140625,2.3193359375,0
1733491063.0204492,0.83935546875,-0.175048828125,0.202880859375,-3.662109136581421,5.798339366912842,9.82666015625,0
1733491063.1409934,0.417236328125,-0.128173828125,0.1400146484375,-11.413573265075684,-19.47021484375,0.54931640625,0
1733491063.2602077,0.882568359375,-0.0472412109375,0.1240234375,6.408690929412842,38.330078125,34.24072265625,0
1733491063.380272,0.8638916015625,-0.0655517578125,0.2078857421875,-4.94384765625,31.127927780151367,29.724119186401367,0
1733491063.5007617,1.125732421875,-0.0477294921875,0.1724853515625,-2.3193359375,-14.465331077575684,4.33349609375,0
1733491063.620978,1.2181396484375,0.009033203125,0.1561279296875,2.563476324081421,-1.4648436307907104,6.469726085662842,0
1733491063.7407308,1.221435546875,0.005126953125,0.1746826171875,10.009765625,-0.6103515625,7.568358898162842,0
1733491063.8611426,1.5570068359375,0.037109375,0.2235107421875,9.521484375,20.874021530151367,6.225585460662842,0
1733491063.9814212,1.3155517578125,-0.01171875,0.2232666015625,5.310058116912842,-25.390623092651367,-15.502928733825684,0
1733491064.1016304,1.189453125,-0.03076171875,0.2098388671875,2.624511480331421,-8.6669921875,-12.329100608825684,0
1733491064.22094,0.9556884765625,-0.0650634765625,0.244140625,1.6479490995407104,-6.713866710662842,-9.3994140625,0
1733491064.3405077,0.76123046875,-0.037841796875,0.1502685546875,-0.30517578125,-19.95849609375,-13.549803733825684,0
1733491064.4613934,0.457275390625,-0.0543212890625,0.1405029296875,-2.746581792831421,-2.38037109375,-25.024412155151367,0
1733491064.5810742,0.8829345703125,-0.0731201171875,0.2454833984375,7.812499523162842,40.283199310302734,-2.13623046875,0
1733491064.701136,0.7833251953125,-0.2054443359375,0.2977294921875,8.9111328125,0.4882812201976776,-0.3662109076976776,0
1733491064.8211262,0.929931640625,-0.1158447265625,0.2755126953125,-6.591796398162842,-20.202634811401367,-8.36181640625,0
1733491064.941157,0.9613037109375,-0.186279296875,0.2431640625,4.7607421875,-3.173827886581421,-5.0048828125,0
1733491065.4794374,0.94287109375,-0.1800537109375,0.2574462890625,0.3662109076976776,1.5258787870407104,0.4272460639476776,1
1733491065.4810457,0.9566650390625,-0.20751953125,0.25927734375,1.7700194120407104,-2.38037109375,-1.03759765625,1
1733491065.4810457,0.9710693359375,-0.19140625,0.2459716796875,1.7700194120407104,-3.295898199081421,-4.08935546875,1
1733491065.4822538,0.9288330078125,-0.2127685546875,0.251708984375,0.30517578125,-0.1220703050494194,-0.9155272841453552,1
1733491065.540894,0.9376220703125,-0.2091064453125,0.25732421875,1.4038084745407104,-0.9155272841453552,-0.30517578125,1
1733491065.6608264,0.9478759765625,-0.20654296875,0.2474365234375,0.3662109076976776,0.2441406100988388,0.6103515625,1
1733491065.780899,0.937744140625,-0.203369140625,0.2578125,-0.8544921278953552,0.30517578125,0.4272460639476776,1
1733491065.9010282,0.9267578125,-0.2020263671875,0.2576904296875,0.0610351525247097,0.54931640625,1.4038084745407104,1
1733491066.021461,0.9237060546875,-0.1904296875,0.2442626953125,1.7089842557907104,2.990722417831421,5.737304210662842,1
1733491066.140432,0.9083251953125,-0.146240234375,0.206787109375,5.920409679412842,7.385253429412842,13.671874046325684,1
1733491066.2606945,0.8743896484375,-0.12060546875,0.18115234375,9.21630859375,10.925292015075684,21.850584030151367,1
1733491066.3811097,0.5902099609375,-0.0758056640625,0.1552734375,1.8920897245407104,3.234863042831421,27.099607467651367,1
1733491066.500751,0.7681884765625,-0.05419921875,0.1114501953125,-5.981444835662842,23.254392623901367,34.0576171875,1
1733491066.6198602,0.921875,-0.0196533203125,0.0941162109375,-9.521484375,18.61572265625,18.12744140625,1
1733491066.7403562,1.0740966796875,0.0469970703125,0.1373291015625,-9.70458984375,2.685546636581421,7.202147960662842,1
1733491066.861108,1.17578125,0.0694580078125,0.11376953125,-14.465331077575684,10.253905296325684,5.187987804412842,1
1733491066.9805257,1.365234375,0.1607666015625,0.1048583984375,-6.774901866912842,16.66259765625,4.82177734375,1
1733491067.100921,1.5843505859375,0.14111328125,0.107421875,2.13623046875,-3.601073980331421,-1.0986328125,1
1733491067.2207623,1.263916015625,0.07373046875,0.1536865234375,9.521484375,-26.367185592651367,-15.136717796325684,1
1733491067.341304,1.085693359375,0.041748046875,0.149169921875,7.629394054412842,-12.878417015075684,-8.23974609375,1
1733491067.4613109,0.944580078125,0.01220703125,0.202880859375,3.295898199081421,-6.713866710662842,-7.751464366912842,1
1733491067.5809436,0.7928466796875,0.0186767578125,0.2003173828125,1.9531248807907104,-17.7001953125,-16.78466796875,1
1733491067.7010272,0.506103515625,-0.0523681640625,0.17578125,1.3427733182907104,-30.334470748901367,-33.63037109375,1
1733491067.8210092,0.763427734375,-0.060546875,0.26904296875,-1.5258787870407104,12.329100608825684,-13.732909202575684,1
1733491067.9409413,0.9287109375,-0.1307373046875,0.21728515625,7.751464366912842,24.963376998901367,4.7607421875,1
1733491068.061285,0.8634033203125,-0.132080078125,0.3172607421875,-2.25830078125,-15.624999046325684,-9.1552734375,1
1733491068.1805294,1.0582275390625,-0.170166015625,0.2479248046875,4.82177734375,-4.0283203125,-7.507323741912842,1
1733491068.3008938,0.9598388671875,-0.1871337890625,0.2447509765625,2.624511480331421,1.6479490995407104,-2.807616949081421,1
1733491068.4205923,0.98291015625,-0.17822265625,0.2591552734375,-0.6103515625,-1.9531248807907104,-1.220703125,1
1733491069.0115151,0.941650390625,-0.180419921875,0.2630615234375,-1.6479490995407104,-1.7700194120407104,-1.4038084745407104,2
1733491069.0128608,0.946044921875,-0.1783447265625,0.2562255859375,-1.8310545682907104,1.0986328125,0.30517578125,2
1733491069.0128608,0.932373046875,-0.1612548828125,0.273681640625,-3.173827886581421,3.051757574081421,-0.6103515625,2
1733491069.0140538,0.9578857421875,-0.158935546875,0.2705078125,-0.9155272841453552,0.9155272841453552,0.1831054538488388,2
1733491069.0208006,0.949462890625,-0.1710205078125,0.2645263671875,0.4882812201976776,-0.4882812201976776,-0.1220703050494194,2
1733491069.140284,0.939697265625,-0.166015625,0.2684326171875,1.4038084745407104,-2.01416015625,-0.3662109076976776,2
1733491069.2609367,0.916259765625,-0.1788330078125,0.27197265625,0.7324218153953552,-2.685546636581421,0.8544921278953552,2
1733491069.3810427,0.9161376953125,-0.180419921875,0.28662109375,1.5258787870407104,-3.112792730331421,1.8920897245407104,2
1733491069.501035,0.927001953125,-0.176025390625,0.28125,3.356933355331421,-3.601073980331421,0.7324218153953552,2
1733491069.6215699,0.925048828125,-0.16650390625,0.2734375,1.0986328125,7.629394054412842,5.859374523162842,2
1733491069.7406795,0.915771484375,-0.165771484375,0.252197265625,-2.563476324081421,9.8876953125,7.385253429412842,2
1733491069.861181,0.7998046875,-0.08935546875,0.1822509765625,-2.990722417831421,10.192870140075684,13.427733421325684,2
1733491069.9805484,0.438720703125,-0.0592041015625,0.140625,-3.662109136581421,13.916014671325684,20.507810592651367,2
1733491070.1002321,0.8653564453125,-0.052978515625,0.0865478515625,-4.69970703125,35.09521484375,35.33935546875,2
1733491070.2201567,1.0672607421875,0.02587890625,0.131591796875,-4.94384765625,34.3017578125,31.311033248901367,2
1733491070.3401258,1.1407470703125,0.1280517578125,0.111083984375,-5.798339366912842,5.737304210662842,17.2119140625,2
1733491070.461216,1.27392578125,0.107421875,0.0888671875,-8.4228515625,0.7324218153953552,14.709471702575684,2
1733491070.58043,1.5478515625,0.2369384765625,0.0999755859375,-2.746581792831421,11.718749046325684,4.82177734375,2
1733491070.700973,1.50439453125,0.1920166015625,0.0986328125,8.1787109375,-25.695798873901367,-16.29638671875,2
1733491070.8207762,1.1492919921875,0.093017578125,0.1507568359375,6.774901866912842,-18.24951171875,-20.080564498901367,2
1733491070.941157,0.9232177734375,0.0318603515625,0.173095703125,4.21142578125,-15.075682640075684,-15.014647483825684,2
1733491071.0615692,0.717041015625,0.0135498046875,0.1417236328125,-0.4272460639476776,-20.385740280151367,-18.9208984375,2
1733491071.1810145,0.4853515625,-0.00341796875,0.139892578125,-2.3193359375,-38.2080078125,-41.442867279052734,2
1733491071.3013587,0.65966796875,-0.0479736328125,0.2698974609375,2.746581792831421,1.4648436307907104,-23.803709030151367,2
1733491071.42101,1.281982421875,-0.0784912109375,0.119384765625,10.498045921325684,-2.929687261581421,-3.723144292831421,2
1733491071.5405102,0.865966796875,-0.207275390625,0.292724609375,5.920409679412842,13.916014671325684,1.220703125,2
1733491071.6610334,0.9705810546875,-0.14501953125,0.2635498046875,6.042479991912842,-19.6533203125,-7.568358898162842,2
1733491071.7810361,0.9608154296875,-0.1883544921875,0.2659912109375,1.2817381620407104,9.70458984375,3.417968511581421,2
1733491071.9011111,0.9296875,-0.19287109375,0.2855224609375,-6.591796398162842,-5.554198741912842,-1.8920897245407104,2
1733491072.0208724,0.9425048828125,-0.1759033203125,0.285888671875,-1.8920897245407104,-1.4648436307907104,-2.13623046875,2
1733491072.5240703,0.9178466796875,-0.182373046875,0.275390625,-3.662109136581421,-3.662109136581421,-2.25830078125,3
1733491072.5261266,0.927001953125,-0.1763916015625,0.2755126953125,-2.685546636581421,-0.7934569716453552,0.0,3
1733491072.5270734,0.9600830078125,-0.1781005859375,0.275634765625,-2.990722417831421,-0.7934569716453552,-2.25830078125,3
1733491072.5270734,0.9517822265625,-0.1588134765625,0.2630615234375,-1.5869139432907104,0.6713866591453552,0.0,3
1733491072.6204917,0.9678955078125,-0.162353515625,0.27685546875,0.2441406100988388,3.479003667831421,0.4272460639476776,3
1733491072.7413638,0.9566650390625,-0.176025390625,0.2723388671875,1.03759765625,-0.9765624403953552,-0.1220703050494194,3
1733491072.8604379,0.9471435546875,-0.1708984375,0.2733154296875,0.6713866591453552,-0.7324218153953552,0.30517578125,3
1733491072.9815197,0.940185546875,-0.1729736328125,0.2886962890625,0.1831054538488388,1.15966796875,0.6103515625,3
1733491073.1003659,0.90869140625,-0.1744384765625,0.27783203125,0.7324218153953552,4.57763671875,2.563476324081421,3
1733491073.2208302,0.9365234375,-0.1727294921875,0.2760009765625,0.4272460639476776,2.563476324081421,1.4648436307907104,3
1733491073.340928,0.9296875,-0.1624755859375,0.2626953125,0.3662109076976776,4.5166015625,2.25830078125,3
1733491073.460696,0.8485107421875,-0.1246337890625,0.2264404296875,0.9155272841453552,14.709471702575684,17.27294921875,3
1733491073.5802732,0.58203125,-0.117919921875,0.133056640625,-6.347655773162842,-15.624999046325684,11.779784202575684,3
1733491073.7000916,0.69384765625,-0.03515625,0.15625,-9.27734375,31.005857467651367,28.869626998901367,3
1733491073.820501,0.830322265625,-0.0035400390625,0.16064453125,-4.94384765625,19.47021484375,27.099607467651367,3
1733491073.9996061,1.0318603515625,0.0030517578125,0.149169921875,0.7324218153953552,22.705076217651367,25.939939498901367,3
1733491074.0611045,1.22021484375,0.0758056640625,0.1298828125,2.624511480331421,-31.249998092651367,9.21630859375,3
1733491074.181046,1.46435546875,0.12060546875,0.0987548828125,-5.859374523162842,13.732909202575684,12.145995140075684,3
1733491074.3007433,1.6273193359375,0.2017822265625,0.1514892578125,-2.624511480331421,-11.474608421325684,-3.417968511581421,3
1733491074.4211233,1.2642822265625,0.1090087890625,0.1859130859375,-2.563476324081421,-20.629880905151367,-11.596678733825684,3
1733491074.5409727,1.143310546875,0.067138671875,0.1907958984375,4.5166015625,-24.963376998901367,-16.29638671875,3
1733491074.6007855,0.97314453125,0.051025390625,0.2261962890625,8.85009765625,-4.94384765625,-8.85009765625,3
1733491074.7205362,0.773681640625,0.030517578125,0.1685791015625,5.981444835662842,-14.770506858825684,-18.9208984375,3
1733491074.8413298,0.2257080078125,-0.0458984375,0.1416015625,-3.112792730331421,-50.537105560302734,-47.180171966552734,3
1733491074.9606397,1.0394287109375,0.046630859375,0.2542724609375,11.718749046325684,53.955074310302734,14.343260765075684,3
1733491075.0811374,0.6756591796875,-0.17919921875,0.3873291015625,7.812499523162842,-42.907711029052734,-8.544921875,3
1733491075.2006261,0.918701171875,-0.17138671875,0.3399658203125,18.73779296875,-7.629394054412842,-1.220703125,3
1733491075.32145,0.888916015625,-0.0738525390625,0.3194580078125,8.11767578125,-10.375975608825684,-4.8828125,3
1733491075.4410584,0.9359130859375,-0.177978515625,0.345947265625,-2.868652105331421,10.253905296325684,4.0283203125,3
1733491076.036332,0.926513671875,-0.145751953125,0.332275390625,-2.746581792831421,-0.4882812201976776,-4.2724609375,4
1733491076.037333,0.9300537109375,-0.1385498046875,0.3233642578125,-2.3193359375,3.173827886581421,-2.01416015625,4
1733491076.0383315,0.943359375,-0.14892578125,0.318603515625,-3.662109136581421,4.08935546875,-3.234863042831421,4
1733491076.0391562,0.9393310546875,-0.14892578125,0.3297119140625,-4.0283203125,-1.5258787870407104,-3.295898199081421,4
1733491076.0406995,0.947998046875,-0.1614990234375,0.3218994140625,-2.990722417831421,0.3662109076976776,-2.197265625,4
1733491076.1607792,0.93603515625,-0.1505126953125,0.312744140625,-1.5869139432907104,-1.7089842557907104,-0.7324218153953552,4
1733491076.280683,0.954345703125,-0.1494140625,0.3165283203125,-2.3193359375,-1.220703125,1.15966796875,4
1733491076.4011405,0.924560546875,-0.1478271484375,0.31103515625,-1.7700194120407104,0.3662109076976776,1.5869139432907104,4
1733491076.5211003,0.931396484375,-0.139892578125,0.3087158203125,-2.01416015625,5.920409679412842,4.21142578125,4
1733491076.6404321,0.9754638671875,-0.1346435546875,0.3013916015625,-4.39453125,2.197265625,1.3427733182907104,4
1733491076.7608929,0.9388427734375,-0.12255859375,0.2998046875,-1.7700194120407104,4.69970703125,0.9155272841453552,4
1733491076.8808708,0.8795166015625,-0.1146240234375,0.2637939453125,-2.25830078125,10.864256858825684,10.620116233825684,4
1733491076.9999452,0.81982421875,-0.0460205078125,0.2099609375,-6.835937023162842,6.835937023162842,16.845703125,4
1733491077.1207108,0.36181640625,-0.0572509765625,0.1912841796875,-11.779784202575684,-2.13623046875,14.282225608825684,4
1733491077.240597,0.8275146484375,0.0223388671875,0.1563720703125,-1.4038084745407104,35.46142578125,27.709959030151367,4
1733491077.3600984,0.889404296875,0.0220947265625,0.169189453125,-4.45556640625,26.733396530151367,25.573728561401367,4
1733491077.4806688,1.1484375,0.10546875,0.177490234375,-7.690429210662842,-9.94873046875,10.131834983825684,4
1733491077.6009543,1.344970703125,0.08642578125,0.156982421875,-6.103515148162842,-14.465331077575684,2.38037109375,4
1733491077.7213833,1.6827392578125,0.1988525390625,0.2120361328125,-7.568358898162842,13.549803733825684,3.173827886581421,4
1733491077.841245,1.296875,0.114013671875,0.1702880859375,4.2724609375,-49.743648529052734,-21.728513717651367,4
1733491077.960383,1.187255859375,0.08203125,0.1524658203125,6.408690929412842,-4.82177734375,-3.417968511581421,4
1733491078.0810165,0.85400390625,0.034423828125,0.208984375,6.042479991912842,-6.042479991912842,-4.08935546875,4
1733491078.200936,0.6297607421875,0.01611328125,0.125732421875,4.5166015625,-49.499507904052734,-23.620603561401367,4
1733491078.3212097,0.45263671875,-0.06396484375,0.1300048828125,-2.44140625,-27.648923873901367,-37.90283203125,4
1733491078.4404323,1.03369140625,0.0390625,0.2027587890625,-0.7324218153953552,37.29248046875,-9.27734375,4
1733491078.5608692,0.9759521484375,-0.112060546875,0.209228515625,0.9155272841453552,-3.356933355331421,-2.44140625,4
1733491078.6804705,0.9046630859375,-0.0914306640625,0.2967529296875,0.2441406100988388,-0.54931640625,-3.173827886581421,4
1733491078.8007107,1.0189208984375,-0.035400390625,0.2489013671875,-2.13623046875,-9.70458984375,-6.530761241912842,4
1733491078.920904,0.8914794921875,-0.1025390625,0.2825927734375,7.934569835662842,6.591796398162842,2.25830078125,4
1733491079.5545444,0.983154296875,-0.133544921875,0.256103515625,7.873534679412842,-3.967284917831421,-1.220703125,5
1733491079.5557542,0.9573974609375,-0.111083984375,0.266845703125,8.36181640625,-0.0610351525247097,-2.807616949081421,5
1733491079.5559528,0.9461669921875,-0.1297607421875,0.2674560546875,5.432128429412842,-0.6713866591453552,-1.9531248807907104,5
1733491079.556401,0.96875,-0.1395263671875,0.25,2.868652105331421,-0.8544921278953552,0.0610351525247097,5
1733491079.5569386,0.9554443359375,-0.13525390625,0.26953125,1.5869139432907104,-3.112792730331421,0.2441406100988388,5
1733491079.6397295,0.9544677734375,-0.133544921875,0.270751953125,1.15966796875,-1.5258787870407104,-0.2441406100988388,5
1733491079.7602277,0.9439697265625,-0.1253662109375,0.2689208984375,-1.8310545682907104,0.4882812201976776,-0.0610351525247097,5
1733491079.8806667,0.9537353515625,-0.1314697265625,0.2607421875,-3.356933355331421,0.54931640625,-0.4272460639476776,5
1733491080.0008233,0.9334716796875,-0.1302490234375,0.2681884765625,-2.746581792831421,-1.2817381620407104,-1.220703125,5
1733491080.121083,0.9271240234375,-0.12890625,0.2781982421875,-2.38037109375,-0.1220703050494194,-0.8544921278953552,5
1733491080.2411294,0.935546875,-0.121826171875,0.2667236328125,-0.9765624403953552,2.807616949081421,0.6713866591453552,5
1733491080.3607726,0.939453125,-0.128173828125,0.2442626953125,0.1831054538488388,6.958007335662842,3.112792730331421,5
1733491080.4800634,0.885986328125,-0.1053466796875,0.2347412109375,1.4038084745407104,6.408690929412842,6.896972179412842,5
1733491080.6000378,0.6767578125,-0.0743408203125,0.1175537109375,1.2817381620407104,-8.60595703125,15.136717796325684,5
1733491080.7206156,0.66455078125,-0.06298828125,0.1646728515625,-11.962889671325684,47.668453216552734,27.893064498901367,5
1733491080.8402243,0.6065673828125,-0.0380859375,0.1776123046875,-5.249022960662842,5.371093273162842,19.1650390625,5
1733491081.0207381,0.900146484375,0.018310546875,0.171875,9.6435546875,27.587888717651367,38.26904296875,5
1733491081.0809746,1.5614013671875,0.132080078125,0.0968017578125,-11.657713890075684,-20.996091842651367,0.8544921278953552,5
1733491081.2008314,1.3153076171875,0.248779296875,0.035888671875,2.197265625,13.061522483825684,15.441893577575684,5
1733491081.3209665,1.7738037109375,0.238037109375,-0.0028076171875,11.596678733825684,-36.2548828125,-10.498045921325684,5
1733491081.4404142,1.302001953125,0.1131591796875,0.117919921875,2.807616949081421,-23.681638717651367,-13.183592796325684,5
1733491081.5609138,1.0897216796875,0.0589599609375,0.113525390625,-1.0986328125,-20.385740280151367,-13.183592796325684,5
1733491081.6804788,0.816162109375,0.02392578125,0.177978515625,-6.347655773162842,-6.835937023162842,-5.432128429412842,5
1733491081.8008347,0.4913330078125,-0.01318359375,0.156982421875,-9.46044921875,-50.903316497802734,-35.888671875,5
1733491081.9210434,0.493408203125,-0.03173828125,0.138671875,-3.234863042831421,-33.26416015625,-48.767086029052734,5
1733491082.0407937,1.193603515625,0.0330810546875,0.1402587890625,9.1552734375,38.02490234375,1.7700194120407104,5
1733491082.1609309,0.82275390625,-0.224853515625,0.269775390625,-4.39453125,0.2441406100988388,4.57763671875,5
1733491082.2805023,0.8980712890625,-0.1697998046875,0.28515625,11.901854515075684,-16.2353515625,-10.009765625,5
1733491082.4006183,0.944580078125,-0.0826416015625,0.23828125,7.263183116912842,-13.183592796325684,-6.042479991912842,5
1733491082.520854,0.946044921875,-0.1458740234375,0.2666015625,-0.8544921278953552,8.48388671875,5.981444835662842,5
1733491083.0772216,0.96875,-0.1285400390625,0.2618408203125,1.8310545682907104,-7.324218273162842,-4.94384765625,6
1733491083.0785825,0.9481201171875,-0.10546875,0.249267578125,-0.7934569716453552,-4.82177734375,-2.197265625,6
1733491083.0787747,0.970703125,-0.1138916015625,0.2564697265625,4.0283203125,-0.9765624403953552,0.6103515625,6
1733491083.0798824,0.973388671875,-0.1298828125,0.2567138671875,1.220703125,2.25830078125,-1.0986328125,6
1733491083.1207554,0.9483642578125,-0.1259765625,0.2606201171875,1.5869139432907104,-0.7324218153953552,0.6103515625,6
1733491083.2407172,0.9522705078125,-0.126708984375,0.265380859375,1.03759765625,0.4272460639476776,1.5258787870407104,6
1733491083.3599062,0.982177734375,-0.1337890625,0.263916015625,1.5258787870407104,-2.13623046875,0.7934569716453552,6
1733491083.4804037,0.976806640625,-0.1259765625,0.266845703125,0.9155272841453552,-0.54931640625,0.2441406100988388,6
1733491083.6008768,0.9625244140625,-0.126220703125,0.260498046875,-0.6713866591453552,-3.051757574081421,-0.0610351525247097,6
1733491083.7206929,0.9661865234375,-0.140380859375,0.262451171875,-2.25830078125,-0.2441406100988388,-0.6713866591453552,6
1733491083.8409245,0.9578857421875,-0.129638671875,0.2596435546875,-3.662109136581421,3.112792730331421,-0.4272460639476776,6
1733491083.9605315,0.93896484375,-0.11181640625,0.22900390625,-5.493163585662842,8.056640625,4.45556640625,6
1733491084.0806293,0.9678955078125,-0.0771484375,0.2049560546875,-1.9531248807907104,10.009765625,9.6435546875,6
1733491084.200634,0.7877197265625,-0.0400390625,0.172119140625,2.3193359375,9.033203125,15.930174827575684,6
1733491084.3201413,0.560302734375,-0.0406494140625,0.1571044921875,-1.8310545682907104,-5.798339366912842,20.507810592651367,6
1733491084.4402244,0.7611083984375,-0.0299072265625,0.12255859375,-4.57763671875,15.991209983825684,29.724119186401367,6
1733491084.559677,0.9185791015625,0.0028076171875,0.147705078125,-10.314940452575684,-0.4272460639476776,23.254392623901367,6
1733491084.6804752,1.2645263671875,0.185791015625,0.111572265625,-16.11328125,-1.0986328125,20.385740280151367,6
1733491084.8005035,1.3018798828125,0.2430419921875,0.173828125,-9.1552734375,18.06640625,19.287109375,6
1733491084.921234,1.821044921875,0.323974609375,0.1402587890625,-3.173827886581421,-10.253905296325684,-2.746581792831421,6
1733491085.0401025,1.2772216796875,0.179931640625,0.2000732421875,5.737304210662842,-27.954099655151367,-16.2353515625,6
1733491085.1608052,1.172607421875,0.192626953125,0.195068359375,2.990722417831421,-14.038084983825684,-17.4560546875,6
1733491085.280865,0.8914794921875,0.091552734375,0.1829833984375,7.812499523162842,2.563476324081421,-7.568358898162842,6
1733491085.4007566,0.7943115234375,0.0587158203125,0.153564453125,9.765625,-6.103515148162842,-12.817381858825684,6
1733491085.5209358,0.4659423828125,0.0355224609375,0.1312255859375,2.3193359375,-10.681151390075684,-31.494138717651367,6
1733491085.6407042,0.6328125,-0.0091552734375,0.2342529296875,4.57763671875,25.329587936401367,-5.615233898162842,6
1733491085.7609403,1.0389404296875,-0.028564453125,0.2091064453125,-0.0610351525247097,-90.20995330810547,-2.685546636581421,6
1733491085.881181,1.2431640625,-0.135009765625,0.260498046875,-23.010251998901367,24.963376998901367,-11.352538108825684,6
1733491086.000963,0.903564453125,0.0206298828125,0.2581787109375,8.11767578125,-2.746581792831421,-10.314940452575684,6
1733491086.6059902,0.9024658203125,-0.083984375,0.2535400390625,11.596678733825684,-3.234863042831421,1.7700194120407104,7
1733491086.6071162,0.9854736328125,-0.111572265625,0.2410888671875,-1.15966796875,-2.01416015625,-2.197265625,7
1733491086.607599,0.904296875,-0.0819091796875,0.2720947265625,6.530761241912842,-2.624511480331421,-2.13623046875,7
1733491086.6077108,0.969970703125,-0.118896484375,0.26708984375,3.356933355331421,-7.446288585662842,-1.7700194120407104,7
1733491086.6087165,0.9346923828125,-0.102294921875,0.2679443359375,1.4648436307907104,-0.8544921278953552,-0.4882812201976776,7
1733491086.720421,0.9620361328125,-0.109619140625,0.278564453125,-0.7934569716453552,-0.7324218153953552,-0.4882812201976776,7
1733491086.8400242,0.969970703125,-0.1175537109375,0.2769775390625,-0.7934569716453552,0.9155272841453552,-0.9765624403953552,7
1733491086.96048,0.949951171875,-0.1080322265625,0.276611328125,-1.4038084745407104,-1.15966796875,-1.4038084745407104,7
1733491087.0807035,0.9539794921875,-0.103759765625,0.2740478515625,0.9765624403953552,1.4648436307907104,0.3662109076976776,7
1733491087.2006009,0.9588623046875,-0.1048583984375,0.264892578125,1.0986328125,1.4038084745407104,1.03759765625,7
1733491087.3206332,0.9652099609375,-0.1058349609375,0.2581787109375,0.54931640625,2.44140625,1.6479490995407104,7
1733491087.4406257,0.9571533203125,-0.0823974609375,0.2308349609375,0.9155272841453552,1.9531248807907104,4.33349609375,7
1733491087.56036,0.9219970703125,-0.0709228515625,0.2021484375,-1.7700194120407104,14.526366233825684,16.2353515625,7
1733491087.6804502,0.6661376953125,-0.03466796875,0.1260986328125,-2.990722417831421,-16.4794921875,16.845703125,7
1733491087.8006253,0.4705810546875,-0.013427734375,0.208251953125,-3.845214605331421,46.447750091552734,37.4755859375,7
1733491087.9198089,0.965576171875,0.0771484375,0.10498046875,-1.5258787870407104,7.263183116912842,23.925779342651367,7
1733491088.0400457,0.998291015625,0.0899658203125,0.111572265625,-8.1787109375,7.995604991912842,21.057126998901367,7
1733491088.1605043,1.430419921875,0.2601318359375,0.1263427734375,-11.962889671325684,7.141112804412842,12.268065452575684,7
1733491088.2203403,1.72900390625,0.2982177734375,0.0760498046875,-13.305663108825684,45.532222747802734,7.202147960662842,7
1733491088.340909,1.444091796875,0.2904052734375,0.1160888671875,5.981444835662842,-53.833003997802734,-15.686034202575684,7
1733491088.4613118,1.2657470703125,0.190673828125,0.111328125,5.676269054412842,-18.12744140625,-11.047362327575684,7
1733491088.5814276,0.7802734375,0.1156005859375,0.1695556640625,8.9111328125,-6.408690929412842,-10.131834983825684,7
1733491088.7007813,0.6209716796875,0.0421142578125,0.1265869140625,8.72802734375,-37.78076171875,-30.456541061401367,7
1733491088.8202791,0.476318359375,-0.03759765625,0.143798828125,-2.3193359375,-29.479978561401367,-44.372554779052734,7
1733491088.9412787,1.1142578125,0.1751708984375,0.1357421875,9.46044921875,39.73388671875,0.6713866591453552,7
1733491089.0609958,0.978515625,-0.076904296875,0.1881103515625,8.23974609375,-11.718749046325684,-9.27734375,7
1733491089.1807723,0.926513671875,-0.1346435546875,0.2320556640625,12.023924827575684,13.732909202575684,0.1220703050494194,7
1733491089.3010168,0.9813232421875,-0.0389404296875,0.1905517578125,0.9155272841453552,-23.132322311401367,-12.207030296325684,7
1733491089.4209285,0.926025390625,-0.0733642578125,0.2086181640625,-3.356933355331421,-0.0610351525247097,-3.417968511581421,7
1733491089.5403364,0.971435546875,-0.0714111328125,0.2322998046875,-5.676269054412842,-3.723144292831421,-2.3193359375,7
1733491090.1244175,0.96630859375,-0.0771484375,0.2359619140625,-2.685546636581421,-0.1831054538488388,-2.44140625,8
1733491090.1253211,0.93994140625,-0.0772705078125,0.22119140625,-3.540038824081421,-1.7089842557907104,-2.3193359375,8
1733491090.1266646,0.9290771484375,-0.078857421875,0.2364501953125,-2.990722417831421,4.57763671875,2.44140625,8
1733491090.1269417,0.9697265625,-0.095458984375,0.2230224609375,-2.990722417831421,-2.746581792831421,-1.5258787870407104,8
1733491090.1404727,0.9439697265625,-0.0860595703125,0.2220458984375,-2.13623046875,2.25830078125,-2.3193359375,8
1733491090.2604396,0.9478759765625,-0.0831298828125,0.2371826171875,-1.3427733182907104,-4.45556640625,-1.5869139432907104,8
1733491090.3806684,0.9344482421875,-0.0838623046875,0.2431640625,0.6713866591453552,-2.807616949081421,-1.7700194120407104,8
1733491090.5004027,0.9454345703125,-0.09228515625,0.24169921875,1.15966796875,3.417968511581421,0.9155272841453552,8
1733491090.6203132,0.93408203125,-0.0977783203125,0.2232666015625,1.2817381620407104,3.723144292831421,0.6713866591453552,8
1733491090.7404075,0.928466796875,-0.0948486328125,0.227294921875,1.220703125,1.9531248807907104,2.13623046875,8
1733491090.8602302,0.96923828125,-0.0882568359375,0.2349853515625,-0.4882812201976776,-0.9155272841453552,2.13623046875,8
1733491090.9802477,0.9136962890625,-0.08203125,0.21142578125,-3.540038824081421,7.385253429412842,10.314940452575684,8
1733491091.0999746,0.900634765625,-0.027099609375,0.1656494140625,-7.019042491912842,21.118162155151367,27.160642623901367,8
1733491091.220291,0.3951416015625,-0.063720703125,0.13232421875,-15.014647483825684,-27.770994186401367,13.183592796325684,8
1733491091.3405414,0.59521484375,0.03466796875,0.1510009765625,0.4882812201976776,29.968259811401367,29.785154342651367,8
1733491091.4608095,1.1793212890625,0.1207275390625,0.04052734375,-8.544921875,19.47021484375,25.085447311401367,8
1733491091.579937,1.384033203125,0.323974609375,0.022216796875,-7.324218273162842,19.95849609375,19.10400390625,8
1733491091.7001836,1.5498046875,0.31396484375,-0.0081787109375,-6.469726085662842,39.1845703125,20.01953125,8
1733491091.8206744,1.7728271484375,0.435302734375,-0.0286865234375,-6.591796398162842,1.8920897245407104,-0.7324218153953552,8
1733491091.9408891,1.3052978515625,0.2979736328125,0.0889892578125,-0.7324218153953552,-21.911619186401367,-16.41845703125,8
1733491092.0609322,1.0093994140625,0.1988525390625,0.1087646484375,7.934569835662842,-30.639646530151367,-17.2119140625,8
1733491092.1811562,0.7762451171875,0.099365234375,0.131103515625,10.253905296325684,-13.183592796325684,-7.995604991912842,8
1733491092.300958,0.3836669921875,0.0084228515625,0.177001953125,4.08935546875,-64.453125,-43.395992279052734,8
1733491092.4208899,0.6822509765625,0.0615234375,0.2012939453125,1.15966796875,0.4272460639476776,-19.04296875,8
1733491092.5402067,0.853759765625,-0.030517578125,0.1533203125,10.742186546325684,-9.70458984375,-8.544921875,8
1733491092.660549,0.8975830078125,0.0518798828125,0.37744140625,6.713866710662842,-27.648923873901367,-4.45556640625,8
1733491092.7806811,1.017333984375,-0.0709228515625,0.267333984375,24.169919967651367,0.6713866591453552,1.220703125,8
1733491092.9003823,0.814453125,-0.028076171875,0.274658203125,5.737304210662842,-0.0610351525247097,1.5869139432907104,8
1733491093.0208814,0.9803466796875,-0.0428466796875,0.2801513671875,4.5166015625,-3.051757574081421,2.13623046875,8
1733491093.6535301,0.9793701171875,-0.055908203125,0.2740478515625,1.7700194120407104,0.6103515625,-1.8920897245407104,9
1733491093.6545787,0.9224853515625,-0.033203125,0.2811279296875,-4.638671875,7.873534679412842,-1.4648436307907104,9
1733491093.6545787,0.9478759765625,-0.03466796875,0.274169921875,-2.563476324081421,0.0,-1.6479490995407104,9
1733491093.6555781,0.947021484375,-0.0341796875,0.2757568359375,-3.479003667831421,-2.197265625,-1.4038084745407104,9
1733491093.6566534,0.946044921875,-0.024169921875,0.2791748046875,-1.9531248807907104,1.4038084745407104,1.0986328125,9
1733491093.7404916,0.969482421875,-0.039794921875,0.2850341796875,-0.0610351525247097,-1.2817381620407104,0.7324218153953552,9
1733491093.8604832,0.9681396484375,-0.033935546875,0.280517578125,-0.8544921278953552,-0.2441406100988388,0.6713866591453552,9
1733491093.9809942,0.9498291015625,-0.0408935546875,0.2755126953125,-0.6713866591453552,-0.7934569716453552,-0.6103515625,9
1733491094.1010644,0.951416015625,-0.0218505859375,0.28955078125,-1.9531248807907104,2.13623046875,-0.4882812201976776,9
1733491094.220884,0.958740234375,-0.02880859375,0.27001953125,-2.25830078125,7.812499523162842,2.13623046875,9
1733491094.3406422,0.955078125,-0.0377197265625,0.2574462890625,-4.45556640625,7.812499523162842,3.967284917831421,9
1733491094.460757,0.900146484375,-0.017822265625,0.2093505859375,-5.737304210662842,7.995604991912842,8.6669921875,9
1733491094.5801737,0.6649169921875,-0.00146484375,0.1392822265625,-9.58251953125,-16.78466796875,5.493163585662842,9
1733491094.700406,0.542724609375,0.0404052734375,0.169189453125,-8.30078125,25.512693405151367,24.475095748901367,9
1733491094.8197062,0.9105224609375,0.114501953125,0.1561279296875,-5.920409679412842,31.860349655151367,29.174802780151367,9
1733491094.9405007,1.1829833984375,0.2181396484375,0.1553955078125,-11.840819358825684,51.513668060302734,30.151365280151367,9
1733491095.0600212,1.168701171875,0.2127685546875,0.19482421875,-5.187987804412842,21.545408248901367,18.06640625,9
1733491095.1802757,1.6600341796875,0.38134765625,0.207275390625,-8.85009765625,14.282225608825684,4.39453125,9
1733491095.300542,1.3948974609375,0.2681884765625,0.1585693359375,3.234863042831421,-45.227046966552734,-28.869626998901367,9
1733491095.4203737,1.153564453125,0.20361328125,0.177001953125,3.540038824081421,-2.563476324081421,-6.103515148162842,9
1733491095.540685,0.8819580078125,0.0859375,0.19384765625,5.371093273162842,-39.97802734375,-18.00537109375,9
1733491095.6609216,0.7626953125,0.0496826171875,0.138427734375,-2.0751953125,-5.065917491912842,-16.4794921875,9
1733491095.780669,0.2821044921875,0.01025390625,0.120361328125,0.0,-53.039546966552734,-56.213375091552734,9
1733491095.9001775,1.0350341796875,0.2298583984375,0.17724609375,16.357421875,116.45507049560547,26.794431686401367,9
1733491096.020717,0.49609375,-0.1884765625,0.3353271484375,13.854979515075684,-47.119136810302734,-9.82666015625,9
1733491096.1405358,1.1474609375,-0.1171875,0.255859375,6.896972179412842,-34.7900390625,-10.192870140075684,9
1733491096.260375,0.9796142578125,-0.00439453125,0.2252197265625,6.530761241912842,-11.535643577575684,-12.634276390075684,9
1733491096.380733,0.9044189453125,-0.078369140625,0.259521484375,1.5869139432907104,7.690429210662842,3.540038824081421,9
1733491096.5010912,0.9716796875,-0.0863037109375,0.2664794921875,-2.13623046875,-5.798339366912842,-2.746581792831421,9
1733491096.6211996,0.9339599609375,-0.059814453125,0.25341796875,2.563476324081421,-1.8920897245407104,-4.2724609375,9
1733491097.1817832,0.9534912109375,-0.0650634765625,0.2626953125,-0.0610351525247097,-0.2441406100988388,-1.4648436307907104,10
1733491097.1827826,0.9599609375,-0.0758056640625,0.270751953125,1.5258787870407104,0.0,-0.7934569716453552,10
1733491097.1837823,0.970458984375,-0.0789794921875,0.2628173828125,0.4272460639476776,0.3662109076976776,-0.9155272841453552,10
1733491097.1847801,0.946533203125,-0.0848388671875,0.2733154296875,1.6479490995407104,-0.6103515625,1.7700194120407104,10
1733491097.2204888,0.9447021484375,-0.0858154296875,0.2762451171875,-1.15966796875,-2.38037109375,1.0986328125,10
1733491097.3404593,0.955810546875,-0.07666015625,0.27978515625,-2.3193359375,-0.9765624403953552,1.0986328125,10
1733491097.4606352,0.9451904296875,-0.0863037109375,0.2628173828125,-2.38037109375,-2.01416015625,0.6103515625,10
1733491097.580411,0.9296875,-0.08349609375,0.2777099609375,-1.8310545682907104,-5.065917491912842,-1.4038084745407104,10
1733491097.7006888,0.93115234375,-0.0740966796875,0.2864990234375,-2.197265625,-3.112792730331421,-1.15966796875,10
1733491097.8205595,0.9525146484375,-0.074951171875,0.2794189453125,-1.4038084745407104,1.220703125,0.0,10
1733491097.9402113,0.9564208984375,-0.076904296875,0.276123046875,-1.5869139432907104,0.9155272841453552,0.54931640625,10
1733491098.0601158,0.9158935546875,-0.0784912109375,0.2685546875,-0.0610351525247097,3.173827886581421,1.8310545682907104,10
1733491098.1802812,0.88427734375,-0.0382080078125,0.2210693359375,1.7700194120407104,8.48388671875,12.573241233825684,10
1733491098.300385,0.467529296875,-0.04638671875,0.1502685546875,-5.554198741912842,-23.559568405151367,9.21630859375,10
1733491098.420129,0.6678466796875,0.00439453125,0.1414794921875,-13.061522483825684,25.817869186401367,31.433103561401367,10
1733491098.5406904,0.8494873046875,0.08837890625,0.1689453125,-9.27734375,34.5458984375,34.7900390625,10
1733491098.6599915,1.2674560546875,0.1893310546875,0.0911865234375,-6.164550304412842,8.48388671875,21.545408248901367,10
1733491098.780795,1.4656982421875,0.26708984375,0.16064453125,-12.878417015075684,20.874021530151367,18.37158203125,10
1733491098.9002671,1.9080810546875,0.4354248046875,0.156494140625,-0.1220703050494194,4.39453125,-4.45556640625,10
1733491099.02076,1.2945556640625,0.2237548828125,0.1671142578125,8.85009765625,-22.583005905151367,-20.385740280151367,10
1733491099.1400812,1.0877685546875,0.1240234375,0.1346435546875,3.601073980331421,-18.9208984375,-12.817381858825684,10
1733491099.260713,0.858642578125,0.100830078125,0.1671142578125,2.746581792831421,-15.136717796325684,-7.751464366912842,10
1733491099.3810189,0.3892822265625,-0.00927734375,0.1429443359375,-2.746581792831421,-52.307125091552734,-41.809078216552734,10
1733491099.5003567,0.5433349609375,0.0045166015625,0.197021484375,-2.197265625,-28.625486373901367,-43.395992279052734,10
1733491099.6797376,1.1708984375,0.0394287109375,0.23681640625,6.225585460662842,27.221677780151367,7.080077648162842,10
1733491099.7409644,0.85205078125,-0.0843505859375,0.26318359375,12.084959983825684,3.967284917831421,2.746581792831421,10
1733491099.8612492,0.9896240234375,-0.1280517578125,0.2999267578125,24.841306686401367,27.282712936401367,2.746581792831421,10
1733491099.9804575,0.932373046875,-0.05810546875,0.2447509765625,-2.929687261581421,-8.11767578125,-3.601073980331421,10
1733491100.1008117,0.965576171875,-0.0931396484375,0.250732421875,-4.45556640625,7.019042491912842,3.356933355331421,10
1733491100.7266538,0.9351806640625,-0.092529296875,0.2572021484375,-2.197265625,-0.3662109076976776,-3.540038824081421,11
1733491100.7276132,0.9259033203125,-0.0802001953125,0.2607421875,-5.615233898162842,1.8920897245407104,0.1220703050494194,11
1733491100.7276132,0.949462890625,-0.0531005859375,0.268310546875,-3.723144292831421,-3.295898199081421,-0.1831054538488388,11
1733491100.7286277,0.9576416015625,-0.061279296875,0.26123046875,-1.0986328125,1.7700194120407104,0.2441406100988388,11
1733491100.7286277,0.9427490234375,-0.0478515625,0.250244140625,-0.7324218153953552,2.868652105331421,1.5869139432907104,11
1733491100.819982,0.977294921875,-0.061279296875,0.2574462890625,0.3662109076976776,-2.44140625,0.1220703050494194,11
1733491100.9399924,0.958740234375,-0.0579833984375,0.2769775390625,0.6103515625,-2.746581792831421,-1.4038084745407104,11
1733491101.0605075,0.9349365234375,-0.063720703125,0.2650146484375,-1.8310545682907104,-0.30517578125,-0.4272460639476776,11
1733491101.1809356,0.947998046875,-0.0750732421875,0.2728271484375,-4.8828125,1.7089842557907104,-0.9155272841453552,11
1733491101.3007605,0.9578857421875,-0.0623779296875,0.2716064453125,-3.906249761581421,1.3427733182907104,-1.4038084745407104,11
1733491101.420453,0.94873046875,-0.081298828125,0.267822265625,-3.967284917831421,4.0283203125,0.7934569716453552,11
1733491101.540362,0.94140625,-0.0501708984375,0.2734375,-0.6713866591453552,4.33349609375,0.1220703050494194,11
1733491101.6603274,0.8907470703125,-0.059814453125,0.247314453125,0.7324218153953552,4.7607421875,3.967284917831421,11
1733491101.7796588,0.9456787109375,-0.04736328125,0.217529296875,-4.7607421875,20.568845748901367,13.183592796325684,11
1733491101.9004984,0.8485107421875,0.0076904296875,0.1749267578125,-3.417968511581421,5.981444835662842,16.357421875,11
1733491102.0196679,0.63720703125,-0.027587890625,0.1114501953125,-2.624511480331421,-3.845214605331421,18.4326171875,11
1733491102.1407468,0.757568359375,-0.001708984375,0.0858154296875,-3.784179449081421,25.390623092651367,23.376462936401367,11
1733491102.2595925,0.9259033203125,0.140869140625,0.1551513671875,-4.82177734375,20.080564498901367,20.935056686401367,11
1733491102.3806055,1.179443359375,0.1746826171875,0.1275634765625,-12.023924827575684,34.48486328125,19.10400390625,11
1733491102.5010548,1.1768798828125,0.2891845703125,0.150634765625,-3.723144292831421,-1.0986328125,5.310058116912842,11
1733491102.6208708,1.469970703125,0.277587890625,0.170654296875,-4.39453125,27.160642623901367,13.427733421325684,11
1733491102.7409286,1.45849609375,0.27783203125,0.1282958984375,2.746581792831421,-50.170894622802734,-21.240232467651367,11
1733491102.8610933,1.26611328125,0.2161865234375,0.1165771484375,8.1787109375,-11.352538108825684,-12.329100608825684,11
1733491102.9801207,0.85302734375,0.104248046875,0.150146484375,10.803221702575684,-22.827146530151367,-11.657713890075684,11
1733491103.1007762,0.6982421875,0.0810546875,0.149169921875,0.2441406100988388,-6.713866710662842,-9.82666015625,11
1733491103.2205431,0.3876953125,0.0125732421875,0.117431640625,-7.873534679412842,-19.4091796875,-40.283199310302734,11
1733491103.3406386,0.72607421875,0.0897216796875,0.2359619140625,3.845214605331421,21.057126998901367,-9.33837890625,11
1733491103.4604003,0.94140625,0.0421142578125,0.14208984375,24.230955123901367,-40.405269622802734,-0.7324218153953552,11
1733491103.5798194,1.067626953125,-0.096923828125,0.23974609375,4.69970703125,-25.146482467651367,-5.371093273162842,11
1733491103.700943,1.1546630859375,0.003173828125,0.173095703125,5.0048828125,-5.920409679412842,-8.056640625,11
1733491104.218382,0.9029541015625,-0.054443359375,0.2044677734375,7.446288585662842,3.723144292831421,5.981444835662842,12
1733491104.2196321,1.0325927734375,-0.0316162109375,0.230712890625,2.929687261581421,-1.4038084745407104,3.295898199081421,12
1733491104.2196321,0.9619140625,-0.02880859375,0.2236328125,9.58251953125,-1.5869139432907104,-1.9531248807907104,12
1733491104.2207997,0.9658203125,-0.050048828125,0.2105712890625,4.33349609375,-3.845214605331421,-2.01416015625,12
1733491104.299894,0.9678955078125,-0.0526123046875,0.216796875,-1.7089842557907104,-6.347655773162842,-3.234863042831421,12
1733491104.4203343,0.9610595703125,-0.0465087890625,0.2357177734375,-3.723144292831421,-3.295898199081421,-5.249022960662842,12
1733491104.539617,0.9678955078125,-0.04443359375,0.2479248046875,-5.065917491912842,-2.624511480331421,-2.197265625,12
1733491104.6598425,0.940673828125,-0.0543212890625,0.2537841796875,-5.676269054412842,0.1220703050494194,-1.0986328125,12
1733491104.7803092,0.952392578125,-0.0615234375,0.2532958984375,-5.187987804412842,-1.7089842557907104,-2.990722417831421,12
1733491104.9005368,0.9403076171875,-0.0465087890625,0.2662353515625,-5.615233898162842,-0.1220703050494194,-1.3427733182907104,12
1733491105.0206656,0.9656982421875,-0.054931640625,0.2789306640625,-4.94384765625,4.69970703125,-0.30517578125,12
1733491105.1404636,0.9586181640625,-0.0615234375,0.2813720703125,-4.69970703125,0.9765624403953552,-1.3427733182907104,12
1733491105.2604785,0.8875732421875,-0.0648193359375,0.2618408203125,-8.72802734375,8.23974609375,3.417968511581421,12
1733491105.3798077,0.7994384765625,-0.0023193359375,0.187744140625,-14.160155296325684,20.141599655151367,14.160155296325684,12
1733491105.4999406,0.4637451171875,0.00146484375,0.1712646484375,-17.76123046875,13.732909202575684,8.6669921875,12
1733491105.6198034,0.7445068359375,0.0262451171875,0.1572265625,-7.019042491912842,23.254392623901367,24.047849655151367,12
1733491105.7399125,0.949462890625,0.068359375,0.17041015625,0.30517578125,12.023924827575684,21.911619186401367,12
1733491105.8602772,1.238037109375,0.1549072265625,0.1363525390625,14.343260765075684,-1.4648436307907104,19.6533203125,12
1733491105.9806726,1.55126953125,0.285888671875,0.1473388671875,12.817381858825684,-8.60595703125,17.51708984375,12
1733491106.1011415,1.7110595703125,0.27978515625,0.1885986328125,3.723144292831421,-19.34814453125,-2.13623046875,12
1733491106.2205517,1.30712890625,0.2127685546875,0.230224609375,-5.065917491912842,-8.36181640625,-5.798339366912842,12
1733491106.3405879,1.0064697265625,0.1990966796875,0.2132568359375,-3.540038824081421,-16.41845703125,-13.977049827575684,12
1733491106.4610744,0.8131103515625,0.1414794921875,0.1807861328125,3.967284917831421,-9.46044921875,-13.244627952575684,12
1733491106.5800533,0.449462890625,0.0184326171875,0.1412353515625,5.249022960662842,-24.963376998901367,-39.24560546875,12
1733491106.7008753,0.7645263671875,0.0423583984375,0.146728515625,16.66259765625,-2.3193359375,-36.07177734375,12
1733491106.8205516,0.8790283203125,-0.0523681640625,0.2291259765625,14.099120140075684,29.663084030151367,5.676269054412842,12
1733491106.9411361,0.748046875,-0.081787109375,0.2490234375,-1.7700194120407104,-10.864256858825684,0.30517578125,12
1733491107.0608144,1.001220703125,-0.0867919921875,0.286376953125,0.4272460639476776,12.939452171325684,-1.9531248807907104,12
1733491107.1803885,0.9451904296875,-0.0609130859375,0.2926025390625,-0.6713866591453552,-4.57763671875,-3.051757574081421,12
1733491107.7401474,0.987060546875,-0.083984375,0.2838134765625,-2.929687261581421,-1.7089842557907104,-2.3193359375,13
1733491107.7411547,0.9281005859375,-0.0582275390625,0.291748046875,-3.479003667831421,3.479003667831421,-1.7700194120407104,13
1733491107.741298,0.9468994140625,-0.0728759765625,0.28759765625,-2.3193359375,-2.197265625,-0.9765624403953552,13
1733491107.7420213,0.9664306640625,-0.0794677734375,0.2811279296875,-2.3193359375,-5.432128429412842,-0.7934569716453552,13
1733491107.7805858,0.91796875,-0.0396728515625,0.2982177734375,-0.1220703050494194,-9.3994140625,-1.3427733182907104,13
1733491107.9004211,0.9619140625,-0.0750732421875,0.31103515625,2.01416015625,1.8920897245407104,2.624511480331421,13
1733491108.0200036,0.9390869140625,-0.07861328125,0.3099365234375,4.21142578125,0.1831054538488388,0.2441406100988388,13
1733491108.1407435,0.947509765625,-0.0838623046875,0.3125,1.5869139432907104,-1.4648436307907104,0.4272460639476776,13
1733491108.260222,0.9415283203125,-0.0762939453125,0.31982421875,0.7934569716453552,0.0610351525247097,-0.6103515625,13
1733491108.3802576,0.9110107421875,-0.0863037109375,0.3194580078125,-0.9765624403953552,2.685546636581421,-0.1220703050494194,13
1733491108.4406419,0.9129638671875,-0.08984375,0.3177490234375,-1.15966796875,1.220703125,0.8544921278953552,13
1733491108.5603354,0.9405517578125,-0.099365234375,0.3145751953125,-3.234863042831421,2.807616949081421,-0.3662109076976776,13
1733491108.6801045,0.928955078125,-0.0655517578125,0.3143310546875,-5.920409679412842,3.906249761581421,0.6103515625,13
1733491108.799655,0.8868408203125,-0.06396484375,0.2747802734375,-7.446288585662842,14.099120140075684,9.765625,13
1733491108.920142,0.7332763671875,0.0035400390625,0.196533203125,-8.30078125,6.652831554412842,15.808104515075684,13
1733491109.03996,0.235107421875,-0.103759765625,0.1378173828125,-11.230467796325684,15.808104515075684,14.282225608825684,13
1733491109.1596708,1.0029296875,0.0281982421875,0.1893310546875,-2.0751953125,28.137205123901367,33.99658203125,13
1733491109.280455,1.154052734375,0.125732421875,0.1258544921875,-13.793944358825684,35.21728515625,36.19384765625,13
1733491109.400227,1.1605224609375,0.2216796875,0.192138671875,-5.798339366912842,-0.1220703050494194,10.742186546325684,13
1733491109.520447,1.557861328125,0.2620849609375,0.1632080078125,-1.4648436307907104,15.930174827575684,3.601073980331421,13
1733491109.640483,1.63818359375,0.339111328125,0.1407470703125,2.13623046875,-6.530761241912842,-13.000487327575684,13
1733491109.760811,1.26513671875,0.2191162109375,0.1639404296875,6.103515148162842,11.230467796325684,-11.047362327575684,13
1733491109.880508,1.0369873046875,0.1143798828125,0.1710205078125,19.83642578125,-26.733396530151367,-21.301267623901367,13
1733491110.0007393,0.70703125,0.0316162109375,0.143798828125,13.854979515075684,-11.779784202575684,-10.925292015075684,13
1733491110.1207516,0.4202880859375,-0.0328369140625,0.129150390625,-2.0751953125,-61.645503997802734,-51.208492279052734,13
1733491110.2407131,0.860595703125,0.008056640625,0.2589111328125,-6.103515148162842,9.8876953125,-10.864256858825684,13
1733491110.361319,0.7825927734375,-0.0760498046875,0.335205078125,3.173827886581421,0.9155272841453552,7.385253429412842,13
1733491110.4806888,0.8907470703125,-0.049072265625,0.3480224609375,0.0610351525247097,16.6015625,3.173827886581421,13
1733491110.6007097,0.9478759765625,-0.090576171875,0.3531494140625,2.685546636581421,13.427733421325684,-1.9531248807907104,13
1733491110.7207808,0.9654541015625,-0.0772705078125,0.3240966796875,0.7934569716453552,-2.25830078125,-3.967284917831421,13
1733491111.2545075,0.968994140625,-0.0823974609375,0.31982421875,1.0986328125,3.356933355331421,-1.6479490995407104,14
1733491111.255769,0.9317626953125,-0.102783203125,0.3304443359375,0.4272460639476776,1.8920897245407104,-1.5258787870407104,14
1733491111.2559886,0.919189453125,-0.1058349609375,0.316650390625,-0.1220703050494194,-1.2817381620407104,-2.38037109375,14
1733491111.2569938,0.9127197265625,-0.0924072265625,0.32666015625,-1.8310545682907104,-3.723144292831421,-1.7700194120407104,14
1733491111.3201628,0.9019775390625,-0.093505859375,0.3240966796875,0.4272460639476776,-0.4882812201976776,-0.7934569716453552,14
1733491111.439428,0.91162109375,-0.11083984375,0.3243408203125,-0.3662109076976776,0.8544921278953552,0.30517578125,14
1733491111.559836,0.93017578125,-0.093994140625,0.337646484375,-1.4648436307907104,1.220703125,-0.2441406100988388,14
1733491111.680519,0.94140625,-0.1162109375,0.3287353515625,-1.8310545682907104,-5.920409679412842,-1.6479490995407104,14
1733491111.8001494,0.9053955078125,-0.1097412109375,0.32861328125,-1.5258787870407104,-4.69970703125,-1.03759765625,14
1733491111.920182,0.9173583984375,-0.1114501953125,0.3258056640625,-1.9531248807907104,2.3193359375,0.6713866591453552,14
1733491112.0405018,0.929931640625,-0.1019287109375,0.31982421875,-1.4038084745407104,4.638671875,0.9155272841453552,14
1733491112.160383,0.9010009765625,-0.0892333984375,0.2845458984375,-3.295898199081421,17.333984375,6.652831554412842,14
1733491112.2803907,0.8450927734375,-0.0252685546875,0.1805419921875,4.57763671875,21.423337936401367,16.66259765625,14
1733491112.399912,0.4686279296875,-0.0147705078125,0.1666259765625,2.50244140625,29.785154342651367,23.437498092651367,14
1733491112.5199394,0.7681884765625,-0.0540771484375,0.14404296875,1.5258787870407104,16.66259765625,25.329587936401367,14
1733491112.6398253,0.9136962890625,0.05859375,0.1544189453125,-5.737304210662842,15.136717796325684,28.747556686401367,14
1733491112.782361,1.1676025390625,0.152587890625,0.10400390625,-16.17431640625,-19.34814453125,10.314940452575684,14
1733491112.8798451,1.3212890625,0.195556640625,0.1964111328125,-10.009765625,29.418943405151367,15.380858421325684,14
1733491112.9998486,1.6998291015625,0.23291015625,0.144775390625,2.563476324081421,-15.136717796325684,-15.808104515075684,14
1733491113.1204255,1.2933349609375,0.1580810546875,0.156982421875,11.230467796325684,-18.6767578125,-21.911619186401367,14
1733491113.2405622,1.1749267578125,0.0819091796875,0.16845703125,7.446288585662842,-14.770506858825684,-10.559081077575684,14
1733491113.360465,0.8487548828125,0.0096435546875,0.175048828125,9.33837890625,-22.216794967651367,-9.521484375,14
1733491113.480498,0.812744140625,0.0137939453125,0.120849609375,3.295898199081421,-10.009765625,-10.070799827575684,14
1733491113.6004758,0.413818359375,-0.042236328125,0.13720703125,-2.13623046875,-18.49365234375,-29.296873092651367,14
1733491113.7203252,0.8900146484375,0.0406494140625,0.22509765625,-6.896972179412842,55.603023529052734,6.103515148162842,14
1733491113.8405106,0.671630859375,-0.11328125,0.25732421875,5.676269054412842,-20.446775436401367,-2.807616949081421,14
1733491113.9609869,0.8223876953125,-0.056884765625,0.27880859375,8.6669921875,-38.02490234375,-1.4648436307907104,14
1733491114.080486,1.00927734375,-0.1229248046875,0.261474609375,4.2724609375,-1.9531248807907104,-7.141112804412842,14
1733491114.2008448,0.8980712890625,-0.091064453125,0.2862548828125,-6.042479991912842,3.234863042831421,-2.0751953125,14
1733491114.7572415,0.9517822265625,-0.0888671875,0.3052978515625,1.4038084745407104,5.554198741912842,0.9155272841453552,15
1733491114.7591288,0.9476318359375,-0.1171875,0.28759765625,1.03759765625,1.8310545682907104,-1.4648436307907104,15
1733491114.7594373,0.941650390625,-0.0911865234375,0.2796630859375,-1.220703125,3.479003667831421,-1.5869139432907104,15
1733491114.7604957,0.9755859375,-0.103759765625,0.2725830078125,-3.112792730331421,4.33349609375,-1.7089842557907104,15
1733491114.800025,0.93896484375,-0.0888671875,0.27783203125,-4.57763671875,2.0751953125,-2.50244140625,15
1733491114.920025,0.951904296875,-0.1053466796875,0.2576904296875,0.6713866591453552,-1.6479490995407104,-2.868652105331421,15
1733491115.0409598,0.9398193359375,-0.0859375,0.281494140625,1.5258787870407104,-0.7324218153953552,-2.3193359375,15
1733491115.1606936,0.9586181640625,-0.1038818359375,0.280517578125,1.15966796875,1.9531248807907104,0.7324218153953552,15
1733491115.280917,0.936767578125,-0.111572265625,0.2685546875,0.2441406100988388,4.0283203125,2.25830078125,15
1733491115.402102,0.9427490234375,-0.1300048828125,0.2742919921875,-2.25830078125,0.8544921278953552,1.15966796875,15
1733491115.5198932,0.9593505859375,-0.0745849609375,0.2901611328125,-2.0751953125,1.2817381620407104,0.30517578125,15
1733491115.6398396,0.9140625,-0.0970458984375,0.2554931640625,-1.2817381620407104,8.30078125,5.981444835662842,15
1733491115.760069,0.86328125,-0.07470703125,0.20458984375,-4.8828125,12.695311546325684,14.038084983825684,15
1733491115.8795838,0.56884765625,-0.0272216796875,0.1429443359375,-4.2724609375,-23.010251998901367,7.629394054412842,15
1733491115.9997373,0.6607666015625,0.00732421875,0.18701171875,2.197265625,33.99658203125,34.11865234375,15
1733491116.1204636,0.9161376953125,0.0767822265625,0.1690673828125,2.38037109375,9.46044921875,28.503416061401367,15
1733491116.2394962,1.169921875,0.0478515625,0.1610107421875,3.356933355331421,32.28759765625,17.9443359375,15
1733491116.359795,1.218994140625,0.129638671875,0.1483154296875,-13.854979515075684,-2.44140625,-0.30517578125,15
1733491116.4808483,1.4449462890625,0.18994140625,0.2513427734375,-4.45556640625,39.794921875,10.498045921325684,15
1733491116.6005452,1.48974609375,0.211181640625,0.189697265625,3.112792730331421,-46.325679779052734,-20.751951217651367,15
1733491116.7206929,1.3511962890625,0.1689453125,0.143798828125,7.019042491912842,-12.084959983825684,-14.038084983825684,15
1733491116.8404021,1.0301513671875,0.0574951171875,0.1895751953125,10.070799827575684,-6.835937023162842,-11.596678733825684,15
1733491116.9597087,0.858642578125,-0.0263671875,0.2005615234375,6.713866710662842,-12.084959983825684,-9.58251953125,15
1733491117.0802307,0.7191162109375,0.0052490234375,0.1695556640625,-0.1220703050494194,-23.864744186401367,-16.54052734375,15
1733491117.2005696,0.4261474609375,-0.02880859375,0.1573486328125,-3.051757574081421,-31.188962936401367,-35.15625,15
1733491117.320911,0.8359375,-0.0343017578125,0.2647705078125,-6.225585460662842,39.73388671875,1.5869139432907104,15
1733491117.440399,0.8489990234375,-0.128662109375,0.26904296875,2.3193359375,-35.5224609375,-3.723144292831421,15
1733491117.5606625,1.02001953125,-0.1484375,0.2750244140625,-1.0986328125,-25.939939498901367,-15.319823265075684,15
1733491117.6807132,1.0240478515625,-0.0550537109375,0.26318359375,-5.065917491912842,3.540038824081421,-5.310058116912842,15
1733491118.2734454,0.9312744140625,-0.128173828125,0.273681640625,2.563476324081421,3.417968511581421,-1.4648436307907104,16
1733491118.2744439,0.9666748046875,-0.1080322265625,0.2767333984375,3.112792730331421,0.0,0.3662109076976776,16
1733491118.2753904,0.923583984375,-0.1336669921875,0.27001953125,4.638671875,-0.6713866591453552,0.1831054538488388,16
1733491118.2755182,0.9390869140625,-0.13525390625,0.2769775390625,2.01416015625,4.638671875,-1.15966796875,16
1733491118.2800064,0.9541015625,-0.14501953125,0.2783203125,-0.9155272841453552,-3.234863042831421,-2.929687261581421,16
1733491118.3999634,0.929443359375,-0.1435546875,0.2811279296875,-1.8920897245407104,-2.929687261581421,-1.9531248807907104,16
1733491118.5202017,0.9384765625,-0.1451416015625,0.2738037109375,-4.7607421875,0.7934569716453552,-1.6479490995407104,16
1733491118.6403036,0.91796875,-0.131591796875,0.2750244140625,-2.746581792831421,0.1220703050494194,-2.13623046875,16
1733491118.7598517,0.9639892578125,-0.133544921875,0.2774658203125,-1.7700194120407104,2.197265625,1.0986328125,16
1733491118.8806944,0.9322509765625,-0.1488037109375,0.2896728515625,-0.3662109076976776,3.601073980331421,2.746581792831421,16
1733491119.0001292,0.921142578125,-0.1375732421875,0.279052734375,1.3427733182907104,5.737304210662842,4.45556640625,16
1733491119.1205814,0.9168701171875,-0.1278076171875,0.2607421875,1.5258787870407104,2.990722417831421,5.432128429412842,16
1733491119.2403355,0.904052734375,-0.0980224609375,0.2318115234375,0.6103515625,8.7890625,15.197752952575684,16
1733491119.3601568,0.6053466796875,-0.075439453125,0.12890625,-2.868652105331421,-14.465331077575684,16.2353515625,16
1733491119.4803193,0.4801025390625,0.0048828125,0.1956787109375,-7.873534679412842,41.625972747802734,36.9873046875,16
1733491119.5998516,0.90625,-0.0189208984375,0.1505126953125,-2.197265625,-11.474608421325684,13.244627952575684,16
1733491119.7203813,1.201904296875,0.1517333984375,0.11865234375,-5.493163585662842,70.9228515625,29.479978561401367,16
1733491119.8396835,1.1881103515625,0.2005615234375,0.170166015625,-10.986327171325684,-3.601073980331421,2.0751953125,16
1733491119.960373,1.5611572265625,0.123046875,0.2401123046875,-0.7324218153953552,14.526366233825684,5.554198741912842,16
1733491120.0801709,1.4981689453125,0.18603515625,0.1689453125,1.7089842557907104,-68.66455078125,-24.841306686401367,16
1733491120.200712,1.371337890625,0.15771484375,0.1553955078125,3.784179449081421,-18.37158203125,-8.9111328125,16
1733491120.320488,0.9124755859375,0.0513916015625,0.2225341796875,10.192870140075684,2.3193359375,-2.44140625,16
1733491120.4398797,0.7093505859375,0.0050048828125,0.174560546875,9.82666015625,-12.634276390075684,-7.019042491912842,16
1733491120.5602148,0.5213623046875,0.003662109375,0.14208984375,-2.44140625,-17.578125,-35.82763671875,16
1733491120.6804876,0.5880126953125,-0.041748046875,0.239013671875,5.0048828125,7.202147960662842,-15.686034202575684,16
1733491120.8009825,1.1444091796875,-0.083251953125,0.20654296875,11.108397483825684,-11.657713890075684,-3.234863042831421,16
1733491120.920203,0.8939208984375,-0.11376953125,0.2650146484375,4.33349609375,14.648436546325684,2.563476324081421,16
1733491121.0402517,1.0302734375,-0.085693359375,0.2601318359375,9.033203125,0.30517578125,-6.103515148162842,16
1733491121.1601717,0.9385986328125,-0.130615234375,0.2423095703125,0.6103515625,-4.7607421875,-2.990722417831421,16
1733491121.7855616,0.978759765625,-0.107421875,0.289794921875,-1.7700194120407104,2.746581792831421,-1.8920897245407104,17
1733491121.7867177,0.9476318359375,-0.1197509765625,0.272705078125,-2.746581792831421,-3.662109136581421,-4.82177734375,17
1733491121.787727,0.9576416015625,-0.1170654296875,0.28076171875,-2.38037109375,-2.807616949081421,-2.38037109375,17
1733491121.7882454,0.951904296875,-0.1195068359375,0.2847900390625,1.7700194120407104,-8.544921875,-0.9765624403953552,17
1733491121.7891562,0.93505859375,-0.124267578125,0.2984619140625,-1.0986328125,-4.150390625,0.0610351525247097,17
1733491121.8802042,0.9393310546875,-0.1253662109375,0.289794921875,-1.7089842557907104,-2.197265625,0.2441406100988388,17
1733491121.9994216,0.9200439453125,-0.13037109375,0.294921875,-0.1831054538488388,-6.347655773162842,-0.1220703050494194,17
1733491122.1200547,0.9544677734375,-0.1253662109375,0.3016357421875,-1.2817381620407104,-1.2817381620407104,-0.8544921278953552,17
1733491122.2405684,0.945556640625,-0.112548828125,0.31689453125,-1.7700194120407104,1.7700194120407104,-0.2441406100988388,17
1733491122.3603387,0.939453125,-0.11474609375,0.300537109375,-1.4038084745407104,6.225585460662842,1.5869139432907104,17
1733491122.4804142,0.9256591796875,-0.1253662109375,0.2943115234375,-1.4648436307907104,7.385253429412842,2.3193359375,17
1733491122.6002228,0.9219970703125,-0.1033935546875,0.28466796875,-1.15966796875,6.347655773162842,6.225585460662842,17
1733491122.7197247,0.8634033203125,-0.0804443359375,0.256591796875,-3.479003667831421,20.385740280151367,20.629880905151367,17
1733491122.8402908,0.4813232421875,-0.0665283203125,0.1190185546875,-11.596678733825684,-26.123044967651367,6.958007335662842,17
1733491122.9602666,0.6751708984375,0.0496826171875,0.19873046875,-10.620116233825684,70.49560546875,51.635738372802734,17
1733491123.0797658,0.7369384765625,-0.01513671875,0.1824951171875,-11.596678733825684,-13.183592796325684,14.709471702575684,17
1733491123.2002275,1.511962890625,0.3021240234375,0.1185302734375,-4.638671875,47.668453216552734,20.629880905151367,17
1733491123.3202596,1.0430908203125,0.1201171875,0.2288818359375,-2.929687261581421,10.864256858825684,11.718749046325684,17
1733491123.4399211,1.6773681640625,0.2274169921875,0.13134765625,-5.798339366912842,23.193357467651367,5.310058116912842,17
1733491123.559881,1.6082763671875,0.2415771484375,0.1455078125,9.58251953125,-30.212400436401367,-17.578125,17
1733491123.680752,1.231201171875,0.147705078125,0.191650390625,-0.1831054538488388,-13.366698265075684,-11.108397483825684,17
1733491123.800599,0.939697265625,0.0986328125,0.1954345703125,3.784179449081421,-40.466304779052734,-16.845703125,17
1733491123.920046,0.9337158203125,0.0557861328125,0.1834716796875,6.347655773162842,6.530761241912842,-2.868652105331421,17
1733491124.040707,0.5489501953125,-0.014892578125,0.1429443359375,-1.3427733182907104,-29.357908248901367,-26.306150436401367,17
1733491124.1607413,0.5794677734375,0.0,0.2003173828125,1.0986328125,-10.925292015075684,-31.372068405151367,17
1733491124.2806835,1.284423828125,0.0264892578125,0.159423828125,21.057126998901367,-31.555173873901367,-8.1787109375,17
1733491124.3998394,0.947998046875,-0.1163330078125,0.255859375,-2.197265625,38.87939453125,3.173827886581421,17
1733491124.5200865,0.9317626953125,-0.0704345703125,0.268310546875,0.54931640625,10.925292015075684,-7.629394054412842,17
1733491124.6406608,0.9248046875,-0.044921875,0.2569580078125,4.94384765625,1.7089842557907104,2.44140625,17
1733491124.7606902,1.0072021484375,-0.117919921875,0.253173828125,3.601073980331421,4.94384765625,1.4648436307907104,17
1733491125.2966075,0.9495849609375,-0.08349609375,0.2493896484375,0.6103515625,-1.7700194120407104,-4.150390625,18
1733491125.298243,0.9566650390625,-0.086181640625,0.255615234375,-0.0610351525247097,-1.0986328125,-1.220703125,18
1733491125.2994277,0.956787109375,-0.0963134765625,0.26513671875,-2.868652105331421,1.220703125,-0.1831054538488388,18
1733491125.3003,0.945556640625,-0.0885009765625,0.2791748046875,-2.685546636581421,-3.479003667831421,-1.9531248807907104,18
1733491125.3593664,0.94189453125,-0.0865478515625,0.2777099609375,-1.7700194120407104,-5.249022960662842,-0.8544921278953552,18
1733491125.479241,0.958984375,-0.101806640625,0.2781982421875,-1.4648436307907104,-2.44140625,-0.1831054538488388,18
1733491125.599517,0.964599609375,-0.0928955078125,0.27392578125,0.1220703050494194,-0.2441406100988388,-0.7934569716453552,18
1733491125.720081,0.970458984375,-0.089599609375,0.277587890625,0.54931640625,1.220703125,0.3662109076976776,18
1733491125.8411677,0.9422607421875,-0.092529296875,0.275390625,0.4882812201976776,0.4882812201976776,-0.0610351525247097,18
1733491125.9608116,0.9427490234375,-0.1019287109375,0.2686767578125,-0.7324218153953552,2.01416015625,1.15966796875,18
1733491126.0803795,0.9639892578125,-0.090087890625,0.265380859375,-2.0751953125,5.126952648162842,3.784179449081421,18
1733491126.2001116,0.9593505859375,-0.06689453125,0.2423095703125,-3.479003667831421,8.7890625,7.751464366912842,18
1733491126.3198872,0.910888671875,-0.0472412109375,0.1959228515625,-6.103515148162842,21.362302780151367,19.8974609375,18
1733491126.4396026,0.5037841796875,-0.065673828125,0.09423828125,-13.610838890075684,-20.629880905151367,6.774901866912842,18
1733491126.5598526,0.749755859375,0.1031494140625,0.18212890625,-3.723144292831421,41.564937591552734,28.442380905151367,18
1733491126.6796443,0.832763671875,0.06591796875,0.1561279296875,-4.82177734375,3.051757574081421,12.573241233825684,18
1733491126.799422,1.1236572265625,0.1474609375,0.0888671875,-2.01416015625,26.550291061401367,19.1650390625,18
1733491126.860118,1.302490234375,0.174072265625,0.1046142578125,-1.5258787870407104,17.51708984375,13.061522483825684,18
1733491126.9800665,1.9608154296875,0.2913818359375,0.021484375,-15.380858421325684,32.28759765625,6.591796398162842,18
1733491127.1002593,1.3424072265625,0.2342529296875,0.1046142578125,-2.807616949081421,-25.207517623901367,-14.343260765075684,18
1733491127.2203193,1.3087158203125,0.1905517578125,0.081298828125,9.94873046875,-0.2441406100988388,-5.859374523162842,18
1733491127.3402443,0.853759765625,0.0830078125,0.1419677734375,6.713866710662842,2.807616949081421,-2.38037109375,18
1733491127.4597054,0.6966552734375,0.0732421875,0.1026611328125,6.042479991912842,-14.648436546325684,-16.17431640625,18
1733491127.5806139,0.4921875,0.0069580078125,0.0777587890625,7.080077648162842,-26.367185592651367,-42.968746185302734,18
1733491127.6997397,0.747802734375,-0.0093994140625,0.14208984375,13.061522483825684,-0.9765624403953552,-21.484373092651367,18
1733491127.8204722,1.2777099609375,-0.081298828125,0.1563720703125,0.1220703050494194,-12.329100608825684,-6.958007335662842,18
1733491127.939826,0.9149169921875,-0.111083984375,0.247802734375,2.990722417831421,32.04345703125,2.807616949081421,18
1733491128.0604298,1.0284423828125,-0.061279296875,0.2064208984375,3.967284917831421,-6.408690929412842,-7.873534679412842,18
1733491128.1804886,0.9259033203125,-0.1077880859375,0.222900390625,-3.234863042831421,3.295898199081421,0.9765624403953552,18
1733491128.3006253,1.0101318359375,-0.1163330078125,0.246826171875,-2.807616949081421,-2.868652105331421,-0.1831054538488388,18
1733491128.8153048,0.9666748046875,-0.077880859375,0.2384033203125,0.6103515625,-0.6103515625,-3.906249761581421,19
1733491128.8166308,0.9722900390625,-0.1065673828125,0.2298583984375,-2.990722417831421,1.5258787870407104,-1.9531248807907104,19
1733491128.8169131,0.947998046875,-0.1153564453125,0.2340087890625,-5.0048828125,-0.6103515625,-3.479003667831421,19
1733491128.8179924,0.9580078125,-0.0933837890625,0.2362060546875,-0.9765624403953552,0.6713866591453552,-2.0751953125,19
1733491128.9001298,0.986572265625,-0.090576171875,0.21630859375,0.6713866591453552,0.7934569716453552,0.0,19
1733491129.0194266,1.005615234375,-0.1009521484375,0.227294921875,1.5258787870407104,1.15966796875,1.4648436307907104,19
1733491129.1395948,0.9652099609375,-0.1119384765625,0.231689453125,0.4882812201976776,1.5258787870407104,1.220703125,19
1733491129.2603025,0.9351806640625,-0.113037109375,0.2257080078125,-1.0986328125,3.417968511581421,1.6479490995407104,19
1733491129.3802211,0.9345703125,-0.0955810546875,0.2120361328125,-1.4038084745407104,8.36181640625,4.7607421875,19
1733491129.5007868,0.9351806640625,-0.074951171875,0.19091796875,-2.3193359375,13.732909202575684,12.145995140075684,19
1733491129.620143,0.7918701171875,-0.0079345703125,0.139404296875,-3.540038824081421,5.065917491912842,20.568845748901367,19
1733491129.7402408,0.5546875,-0.0166015625,0.090576171875,-9.6435546875,24.597166061401367,23.010251998901367,19
1733491129.8600967,0.6575927734375,0.029296875,0.106689453125,-5.065917491912842,30.761716842651367,29.968259811401367,19
1733491129.9800344,0.9725341796875,0.095458984375,0.10791015625,5.920409679412842,-16.78466796875,20.690916061401367,19
1733491130.0996568,1.3646240234375,0.2049560546875,0.1015625,-5.310058116912842,0.0610351525247097,14.343260765075684,19
1733491130.2196817,1.422119140625,0.217041015625,0.197265625,-7.446288585662842,3.906249761581421,13.671874046325684,19
1733491130.3400705,1.67236328125,0.34423828125,0.03857421875,5.676269054412842,-56.213375091552734,-17.578125,19
1733491130.4608989,1.2420654296875,0.2109375,0.1280517578125,8.48388671875,-13.732909202575684,-8.4228515625,19
1733491130.5802224,1.0699462890625,0.1480712890625,0.1456298828125,20.568845748901367,-22.277830123901367,-19.04296875,19
1733491130.7003756,0.875,0.0616455078125,0.1424560546875,13.427733421325684,1.5869139432907104,-12.451170921325684,19
1733491130.820689,0.7054443359375,0.035888671875,0.1468505859375,-1.3427733182907104,-10.437010765075684,-18.61572265625,19
1733491130.9406252,0.421142578125,-0.025634765625,0.0970458984375,-14.831542015075684,-29.907224655151367,-40.893550872802734,19
1733491131.0602794,0.9677734375,0.096435546875,0.139404296875,0.7324218153953552,35.21728515625,-2.3193359375,19
1733491131.1803772,1.000732421875,-0.12890625,0.1072998046875,-0.9765624403953552,-7.385253429412842,-1.2817381620407104,19
1733491131.2997916,0.9234619140625,-0.092529296875,0.217041015625,-0.6713866591453552,16.17431640625,-4.21142578125,19
1733491131.4197884,1.0062255859375,-0.0245361328125,0.19580078125,-4.150390625,-12.084959983825684,-6.042479991912842,19
1733491131.5407803,0.8638916015625,-0.0877685546875,0.19091796875,-2.3193359375,1.4648436307907104,1.7089842557907104,19
1733491131.6605992,0.949951171875,-0.064208984375,0.2318115234375,-2.25830078125,-4.82177734375,-3.234863042831421,19
1733491131.780419,0.97509765625,-0.042236328125,0.22509765625,-0.7324218153953552,-2.807616949081421,-2.807616949081421,19
1733491132.321309,0.96240234375,-0.0584716796875,0.210205078125,0.30517578125,1.7089842557907104,-2.624511480331421,20
1733491132.32245,1.00341796875,-0.074951171875,0.2218017578125,0.0610351525247097,0.7324218153953552,-0.4882812201976776,20
1733491132.32245,0.973388671875,-0.081298828125,0.2066650390625,0.54931640625,-3.112792730331421,-2.746581792831421,20
1733491132.3239822,0.986328125,-0.0576171875,0.2235107421875,1.5869139432907104,-1.4038084745407104,-0.4882812201976776,20
1733491132.3799803,0.9869384765625,-0.0733642578125,0.2313232421875,3.112792730331421,-1.03759765625,-0.1220703050494194,20
1733491132.499282,0.9542236328125,-0.097412109375,0.223388671875,2.0751953125,2.197265625,-0.4882812201976776,20
1733491132.6198456,0.952880859375,-0.0950927734375,0.2261962890625,-0.1831054538488388,-0.1831054538488388,-0.6103515625,20
1733491132.740033,0.9620361328125,-0.0784912109375,0.2227783203125,-0.7324218153953552,2.44140625,-0.54931640625,20
1733491132.8606274,0.979248046875,-0.079345703125,0.22216796875,-0.30517578125,3.967284917831421,0.9155272841453552,20
1733491132.980283,0.967529296875,-0.0908203125,0.2254638671875,-1.5869139432907104,1.0986328125,0.7934569716453552,20
1733491133.1001227,0.953369140625,-0.096435546875,0.2154541015625,-1.3427733182907104,-3.540038824081421,1.4038084745407104,20
1733491133.2200053,0.9227294921875,-0.05224609375,0.212158203125,1.15966796875,1.220703125,6.530761241912842,20
1733491133.3399794,0.781494140625,-0.0462646484375,0.1270751953125,-0.30517578125,9.58251953125,20.812986373901367,20
1733491133.460088,0.429443359375,-0.0140380859375,0.1007080078125,-2.563476324081421,-15.136717796325684,3.051757574081421,20
1733491133.579881,0.79638671875,0.032470703125,0.1748046875,1.7089842557907104,49.072261810302734,41.381832122802734,20
1733491133.7001162,0.919189453125,-0.0238037109375,0.1285400390625,-20.446775436401367,2.624511480331421,20.01953125,20
1733491133.8200967,1.4552001953125,0.2274169921875,0.0404052734375,-17.27294921875,8.23974609375,6.530761241912842,20
1733491133.93981,1.17138671875,0.1583251953125,0.0738525390625,2.929687261581421,17.39501953125,3.845214605331421,20
1733491134.0606604,2.0068359375,0.3651123046875,-0.00830078125,0.4882812201976776,37.53662109375,3.601073980331421,20
1733491134.1801317,1.2919921875,0.15087890625,0.1064453125,-2.563476324081421,-18.61572265625,-10.192870140075684,20
1733491134.3009005,1.2083740234375,0.1617431640625,0.125244140625,7.202147960662842,-30.822751998901367,-20.446775436401367,20
1733491134.420278,0.77490234375,0.03759765625,0.1636962890625,11.718749046325684,-2.868652105331421,-7.324218273162842,20
1733491134.540109,0.634765625,0.0191650390625,0.1527099609375,9.58251953125,-37.65869140625,-21.850584030151367,20
1733491134.6602073,0.43994140625,-0.0322265625,0.10302734375,5.493163585662842,-23.254392623901367,-31.677244186401367,20
1733491134.7802494,1.0054931640625,0.0323486328125,0.1793212890625,-6.958007335662842,61.462398529052734,5.249022960662842,20
1733491134.9007428,0.9306640625,-0.0662841796875,0.226806640625,-15.686034202575684,-30.517576217651367,-10.620116233825684,20
1733491135.020187,0.9815673828125,-0.066162109375,0.24560546875,7.751464366912842,1.9531248807907104,1.8920897245407104,20
1733491135.1402087,1.0733642578125,-0.0621337890625,0.2552490234375,-0.0610351525247097,-4.21142578125,-4.82177734375,20
1733491135.2596767,0.913818359375,-0.0565185546875,0.23388671875,4.82177734375,0.4882812201976776,-2.0751953125,20
1733491135.8306434,0.9659423828125,-0.0755615234375,0.2222900390625,3.479003667831421,1.8310545682907104,1.220703125,21
1733491135.8319352,0.9632568359375,-0.07666015625,0.221923828125,3.967284917831421,0.6103515625,-0.8544921278953552,21
1733491135.8321602,0.9632568359375,-0.073486328125,0.24267578125,-1.5869139432907104,1.8310545682907104,-2.50244140625,21
1733491135.8329506,0.97265625,-0.0770263671875,0.2276611328125,-2.807616949081421,1.6479490995407104,-1.220703125,21
1733491135.8601167,0.9696044921875,-0.0908203125,0.23388671875,-3.112792730331421,0.9765624403953552,0.8544921278953552,21
1733491135.9793756,0.9656982421875,-0.06982421875,0.2373046875,-0.2441406100988388,-5.0048828125,2.01416015625,21
1733491136.1000075,0.9478759765625,-0.0562744140625,0.25,5.371093273162842,-3.051757574081421,1.4648436307907104,21
1733491136.2202914,0.9761962890625,-0.0745849609375,0.2491455078125,4.0283203125,0.7934569716453552,-0.6713866591453552,21
1733491136.3403594,0.968505859375,-0.0888671875,0.2330322265625,0.7324218153953552,-1.0986328125,-0.1831054538488388,21
1733491136.459889,0.9656982421875,-0.08544921875,0.2384033203125,-2.624511480331421,0.4272460639476776,-0.0610351525247097,21
1733491136.5803466,0.94384765625,-0.0672607421875,0.2384033203125,-4.638671875,1.5258787870407104,2.746581792831421,21
1733491136.6997943,0.94384765625,-0.0380859375,0.19873046875,-3.173827886581421,14.953612327575684,11.169432640075684,21
1733491136.8198156,0.677001953125,-0.046630859375,0.1085205078125,-6.347655773162842,-9.6435546875,5.981444835662842,21
1733491136.940232,0.521240234375,0.01708984375,0.1339111328125,-13.488768577575684,42.114253997802734,24.841306686401367,21
1733491137.0601623,0.9385986328125,0.0438232421875,0.1453857421875,-11.291502952575684,36.68212890625,34.1796875,21
1733491137.1801665,0.9339599609375,0.1263427734375,0.127685546875,-11.291502952575684,28.381345748901367,37.29248046875,21
1733491137.300142,1.3956298828125,0.2823486328125,0.0576171875,-1.5258787870407104,7.690429210662842,18.37158203125,21
1733491137.4195926,1.5926513671875,0.323974609375,0.0574951171875,1.7700194120407104,27.038572311401367,9.765625,21
1733491137.5400932,1.6888427734375,0.4256591796875,0.02001953125,5.554198741912842,3.295898199081421,-10.375975608825684,21
1733491137.65988,1.164794921875,0.2427978515625,0.10400390625,8.056640625,9.6435546875,-13.183592796325684,21
1733491137.7797954,1.02197265625,0.1102294921875,0.1444091796875,5.554198741912842,-14.038084983825684,-19.10400390625,21
1733491137.9001079,0.740966796875,0.0325927734375,0.0968017578125,-3.417968511581421,-9.8876953125,-16.17431640625,21
1733491138.0201988,0.67822265625,0.033203125,0.0328369140625,-7.324218273162842,-26.916501998901367,-25.024412155151367,21
1733491138.1406474,0.5528564453125,0.0277099609375,0.0513916015625,-3.540038824081421,-12.207030296325684,-32.28759765625,21
1733491138.2604036,1.0911865234375,0.0499267578125,0.0654296875,7.141112804412842,43.518062591552734,3.662109136581421,21
1733491138.3806007,0.9937744140625,-0.04638671875,0.186279296875,-2.0751953125,-24.963376998901367,-10.620116233825684,21
1733491138.499735,0.978759765625,-0.06103515625,0.2117919921875,17.2119140625,-11.779784202575684,-3.356933355331421,21
1733491138.620244,0.9619140625,-0.0206298828125,0.168701171875,12.939452171325684,-16.29638671875,-9.033203125,21
1733491138.7407362,0.9375,-0.098388671875,0.1988525390625,9.27734375,-0.0610351525247097,-1.7089842557907104,21
1733491139.3628535,0.9715576171875,-0.1075439453125,0.1993408203125,1.6479490995407104,-2.868652105331421,-0.3662109076976776,22
1733491139.363855,0.91943359375,-0.1175537109375,0.186279296875,-4.21142578125,-6.225585460662842,-0.1220703050494194,22
1733491139.364865,0.9404296875,-0.067138671875,0.2216796875,-10.375975608825684,-2.44140625,1.220703125,22
1733491139.364865,0.9454345703125,-0.07080078125,0.209716796875,-3.417968511581421,3.234863042831421,-0.9155272841453552,22
1733491139.3659525,0.9849853515625,-0.065673828125,0.20947265625,-3.723144292831421,0.7934569716453552,-1.0986328125,22
1733491139.459831,0.9677734375,-0.061279296875,0.2294921875,-1.5258787870407104,2.746581792831421,-1.5869139432907104,22
1733491139.5802631,0.95751953125,-0.084228515625,0.2130126953125,-0.3662109076976776,2.3193359375,-1.5258787870407104,22
1733491139.6993723,0.9525146484375,-0.083984375,0.2093505859375,-2.685546636581421,5.065917491912842,-0.4882812201976776,22
1733491139.819817,0.9927978515625,-0.074462890625,0.2039794921875,-4.45556640625,2.746581792831421,-0.7934569716453552,22
1733491139.9399195,0.97607421875,-0.072021484375,0.2127685546875,-4.69970703125,3.601073980331421,0.8544921278953552,22
1733491140.0609596,0.9517822265625,-0.0850830078125,0.204833984375,-6.164550304412842,4.0283203125,1.2817381620407104,22
1733491140.1801481,0.989013671875,-0.0767822265625,0.1944580078125,-6.530761241912842,2.44140625,-3.051757574081421,22
1733491140.2994707,0.8663330078125,-0.04833984375,0.1588134765625,-9.33837890625,10.253905296325684,8.11767578125,22
1733491140.4200902,0.49267578125,-0.0074462890625,0.1138916015625,-6.286620616912842,-25.695798873901367,6.164550304412842,22
1733491140.5392666,0.6868896484375,0.0430908203125,0.1365966796875,9.82666015625,27.160642623901367,35.33935546875,22
1733491140.659763,0.79150390625,-0.011962890625,0.1883544921875,-0.7324218153953552,6.103515148162842,34.7900390625,22
1733491140.7795854,1.2227783203125,0.0838623046875,0.208251953125,-13.977049827575684,41.320796966552734,23.986814498901367,22
1733491140.8999941,1.1890869140625,0.2010498046875,0.2435302734375,-14.831542015075684,31.616209030151367,1.4648436307907104,22
1733491141.0204883,1.454345703125,0.2406005859375,0.2041015625,-1.7089842557907104,-11.413573265075684,-7.812499523162842,22
1733491141.140268,1.5650634765625,0.2086181640625,0.171142578125,0.30517578125,-40.10009765625,-20.141599655151367,22
1733491141.2601032,1.267578125,0.1439208984375,0.18310546875,2.3193359375,2.38037109375,-12.268065452575684,22
1733491141.3805833,0.91552734375,0.04443359375,0.1656494140625,15.930174827575684,-28.015134811401367,-15.197752952575684,22
1733491141.5000713,0.8026123046875,0.01220703125,0.1226806640625,7.568358898162842,14.953612327575684,-2.624511480331421,22
1733491141.619953,0.46044921875,-0.015625,0.0765380859375,12.695311546325684,-55.358882904052734,-36.56005859375,22
1733491141.7394612,0.5950927734375,-0.0584716796875,0.2548828125,10.803221702575684,15.441893577575684,-3.967284917831421,22
1733491141.8602803,1.1082763671875,-0.1171875,0.2296142578125,1.4038084745407104,-24.536130905151367,4.45556640625,22
1733491141.980532,0.9979248046875,-0.0296630859375,0.2703857421875,-6.835937023162842,20.751951217651367,7.629394054412842,22
1733491142.10063,0.9635009765625,-0.0860595703125,0.221923828125,4.21142578125,10.437010765075684,-1.0986328125,22
1733491142.2201846,0.9534912109375,-0.0755615234375,0.232666015625,-4.21142578125,-1.5258787870407104,-4.33349609375,22
1733491142.340193,1.0166015625,-0.0555419921875,0.2449951171875,-5.310058116912842,7.507323741912842,0.2441406100988388,22
1733491142.8767743,0.97265625,-0.06298828125,0.227783203125,-2.13623046875,-2.3193359375,-4.39453125,23
1733491142.8777764,0.97509765625,-0.0645751953125,0.23583984375,1.03759765625,-2.563476324081421,-1.5258787870407104,23
1733491142.8783247,0.9791259765625,-0.0792236328125,0.242431640625,0.0,-1.7700194120407104,-1.8920897245407104,23
1733491142.8793797,0.9505615234375,-0.0792236328125,0.2401123046875,0.4272460639476776,-0.6103515625,-1.2817381620407104,23
1733491142.9400544,0.968017578125,-0.0738525390625,0.2391357421875,-0.2441406100988388,1.3427733182907104,0.2441406100988388,23
1733491143.0593941,0.9788818359375,-0.0784912109375,0.2431640625,-0.1220703050494194,0.6103515625,-0.30517578125,23
1733491143.1798277,0.98046875,-0.078369140625,0.248046875,0.3662109076976776,1.3427733182907104,0.3662109076976776,23
1733491143.3001316,0.9542236328125,-0.08203125,0.2381591796875,0.8544921278953552,-1.0986328125,-1.15966796875,23
1733491143.4200733,0.949462890625,-0.0733642578125,0.248046875,-0.2441406100988388,-0.3662109076976776,-1.8310545682907104,23
1733491143.5397706,0.974365234375,-0.08447265625,0.2540283203125,-0.7324218153953552,1.220703125,-2.01416015625,23
1733491143.6597652,0.9443359375,-0.085205078125,0.2457275390625,-0.7324218153953552,0.1831054538488388,-1.15966796875,23
1733491143.7803495,0.9678955078125,-0.095458984375,0.249267578125,-1.220703125,-1.5258787870407104,-0.9765624403953552,23
1733491143.9002144,0.941162109375,-0.0831298828125,0.2635498046875,-1.8920897245407104,0.9155272841453552,-1.2817381620407104,23
1733491144.0199268,0.9100341796875,-0.080810546875,0.2327880859375,-1.4038084745407104,9.09423828125,5.981444835662842,23
1733491144.1395772,0.81982421875,-0.03369140625,0.162841796875,-4.150390625,16.845703125,20.263669967651367,23
1733491144.2594926,0.3592529296875,-0.06396484375,0.1534423828125,-11.108397483825684,-3.295898199081421,11.474608421325684,23
1733491144.3791423,0.564697265625,-0.01123046875,0.1689453125,1.4648436307907104,16.41845703125,32.28759765625,23
1733491144.4998274,0.9747314453125,0.050537109375,0.11279296875,3.845214605331421,19.04296875,23.193357467651367,23
1733491144.619923,1.430419921875,0.2144775390625,0.1014404296875,-7.873534679412842,-23.437498092651367,3.295898199081421,23
1733491144.7396684,1.669189453125,0.2469482421875,0.154052734375,-11.779784202575684,38.330078125,12.451170921325684,23
1733491144.8604918,1.8226318359375,0.242919921875,0.0986328125,1.7089842557907104,-9.09423828125,-9.8876953125,23
1733491144.9799523,1.2039794921875,0.1448974609375,0.1317138671875,3.540038824081421,-10.864256858825684,-12.207030296325684,23
1733491145.1001308,1.01220703125,0.11767578125,0.155517578125,10.253905296325684,-38.02490234375,-18.73779296875,23
1733491145.2206695,0.9698486328125,0.031005859375,0.1300048828125,14.892577171325684,-6.103515148162842,-1.8920897245407104,23
1733491145.3406923,0.6336669921875,-0.047119140625,0.10400390625,1.6479490995407104,-32.1044921875,-16.66259765625,23
1733491145.4600358,0.30859375,-0.0836181640625,0.123046875,-18.310546875,-37.04833984375,-46.325679779052734,23
1733491145.580397,1.2236328125,0.3377685546875,0.03369140625,-1.9531248807907104,159.48486328125,43.762203216552734,23
1733491145.700557,0.3599853515625,-0.2198486328125,0.2371826171875,-3.540038824081421,6.591796398162842,-6.225585460662842,23
1733491145.8206475,1.00244140625,-0.045166015625,0.21923828125,-2.746581792831421,-27.282712936401367,-10.803221702575684,23
1733491146.4091384,0.8592529296875,-0.0281982421875,0.1741943359375,9.33837890625,-17.4560546875,-5.493163585662842,24
1733491146.4105413,1.0582275390625,-0.0635986328125,0.2078857421875,-0.6713866591453552,-8.6669921875,-3.784179449081421,24
1733491146.4105413,0.9749755859375,-0.0506591796875,0.2052001953125,2.746581792831421,-1.4038084745407104,-1.5258787870407104,24
1733491146.4111497,0.93603515625,-0.070556640625,0.208984375,3.784179449081421,-6.164550304412842,0.6713866591453552,24
1733491146.4197104,0.9842529296875,-0.078369140625,0.225341796875,-2.3193359375,0.6103515625,-0.9765624403953552,24
1733491146.5399477,0.9952392578125,-0.071044921875,0.2220458984375,1.0986328125,-2.01416015625,-0.8544921278953552,24
1733491146.6602514,0.94482421875,-0.0765380859375,0.2213134765625,1.03759765625,-2.0751953125,-0.0610351525247097,24
1733491146.7804062,0.95458984375,-0.0797119140625,0.2359619140625,-1.5258787870407104,-2.0751953125,-0.1220703050494194,24
1733491146.899523,0.98193359375,-0.08740234375,0.219970703125,0.3662109076976776,-4.82177734375,-1.7089842557907104,24
1733491147.0198312,0.9703369140625,-0.0811767578125,0.225341796875,2.197265625,-3.173827886581421,-1.8310545682907104,24
1733491147.1399524,0.9708251953125,-0.083740234375,0.23046875,0.0610351525247097,1.8920897245407104,0.4882812201976776,24
1733491147.2599056,0.977783203125,-0.0833740234375,0.232421875,-2.38037109375,-1.220703125,-0.4272460639476776,24
1733491147.379369,0.9410400390625,-0.078125,0.2064208984375,-2.44140625,1.7089842557907104,1.8310545682907104,24
1733491147.4993653,0.8636474609375,-0.03515625,0.173583984375,-2.44140625,11.596678733825684,14.526366233825684,24
1733491147.6194909,0.33251953125,-0.0533447265625,0.0799560546875,-9.82666015625,-21.850584030151367,3.356933355331421,24
1733491147.7394753,0.790771484375,0.02294921875,0.0694580078125,-11.901854515075684,52.673336029052734,34.11865234375,24
1733491147.859709,0.90771484375,0.048583984375,0.0845947265625,-15.624999046325684,25.878904342651367,27.893064498901367,24
1733491147.979719,1.1922607421875,0.0936279296875,0.0570068359375,-11.657713890075684,4.08935546875,15.014647483825684,24
1733491148.1002526,1.4327392578125,0.2879638671875,0.0557861328125,-4.7607421875,24.902341842651367,10.009765625,24
1733491148.2201834,1.8951416015625,0.29345703125,0.014404296875,-3.601073980331421,11.962889671325684,-2.929687261581421,24
1733491148.3402536,1.2568359375,0.134521484375,0.09423828125,2.50244140625,-27.038572311401367,-17.08984375,24
1733491148.3998303,1.1038818359375,0.160400390625,0.1199951171875,8.23974609375,-31.738279342651367,-15.808104515075684,24
1733491148.5202043,0.8094482421875,0.0438232421875,0.1563720703125,15.441893577575684,-17.08984375,-8.23974609375,24
1733491148.6404514,0.7601318359375,0.010009765625,0.12060546875,4.45556640625,3.784179449081421,0.6103515625,24
1733491148.759965,0.6590576171875,0.019775390625,0.1004638671875,4.7607421875,-34.423828125,-27.465818405151367,24
1733491148.88009,0.65966796875,-0.0137939453125,0.1480712890625,-6.408690929412842,9.27734375,-7.385253429412842,24
1733491149.0002098,1.05078125,0.0543212890625,0.1258544921875,1.3427733182907104,4.33349609375,9.46044921875,24
1733491149.119797,0.9556884765625,-0.07275390625,0.215576171875,1.6479490995407104,-13.122557640075684,-5.493163585662842,24
1733491149.2403626,0.9327392578125,-0.033447265625,0.158935546875,8.4228515625,-4.5166015625,-3.234863042831421,24
1733491149.360693,0.9857177734375,-0.0103759765625,0.1708984375,2.01416015625,-2.197265625,1.8310545682907104,24
1733491149.9290051,1.0142822265625,-0.0391845703125,0.1990966796875,0.6103515625,0.2441406100988388,2.13623046875,25
1733491149.9301705,0.9534912109375,-0.0355224609375,0.198486328125,0.7934569716453552,-1.5869139432907104,-1.2817381620407104,25
1733491149.9301705,0.98828125,-0.025146484375,0.1878662109375,-1.8920897245407104,-1.03759765625,-1.6479490995407104,25
1733491149.9313738,0.9854736328125,-0.0233154296875,0.1849365234375,-2.13623046875,-2.50244140625,-1.0986328125,25
1733491149.9592936,0.971923828125,-0.03173828125,0.190185546875,-0.7934569716453552,0.0,-1.7089842557907104,25
1733491150.0790038,0.9930419921875,-0.0194091796875,0.1942138671875,0.2441406100988388,-1.6479490995407104,-3.479003667831421,25
1733491150.1998901,0.9705810546875,-0.0418701171875,0.1954345703125,-0.7324218153953552,1.2817381620407104,-0.7934569716453552,25
1733491150.3190374,1.0123291015625,-0.05712890625,0.1964111328125,-3.295898199081421,-4.08935546875,-1.5258787870407104,25
1733491150.4391918,0.96826171875,-0.038330078125,0.1865234375,-3.051757574081421,-1.9531248807907104,-4.0283203125,25
1733491150.5597706,0.9700927734375,-0.0439453125,0.2041015625,-4.5166015625,0.54931640625,-0.9155272841453552,25
1733491150.6805375,0.974365234375,-0.057861328125,0.1910400390625,-3.051757574081421,-4.82177734375,-1.8920897245407104,25
1733491150.799474,0.950927734375,-0.040771484375,0.182861328125,-1.0986328125,0.6713866591453552,1.220703125,25
1733491150.919306,0.90966796875,-0.0430908203125,0.172607421875,-3.295898199081421,8.6669921875,8.23974609375,25
1733491151.0398703,0.7628173828125,-0.01025390625,0.0989990234375,-7.141112804412842,14.709471702575684,20.629880905151367,25
1733491151.159724,0.3831787109375,0.0257568359375,0.08837890625,-12.817381858825684,16.6015625,11.352538108825684,25
1733491151.2791579,0.72802734375,0.0194091796875,0.1060791015625,-3.173827886581421,44.433589935302734,32.65380859375,25
1733491151.3995595,0.8717041015625,0.150146484375,0.0638427734375,-1.3427733182907104,-8.48388671875,23.437498092651367,25
1733491151.5787838,1.296875,0.18798828125,0.0623779296875,-0.1831054538488388,-7.507323741912842,15.075682640075684,25
